,Unnamed: 0,dataset,trial,human_accuracy,human_accuracy_sem,human_accuracy_std,human_rt,human_rt_sem,human_rt_std,n_subjects,condition,images,oddity_index,object_names,dinov2-giant_svm_avg,dinov2-base_svm_avg,dinov2-base_svm_med,dinov2-base_svm_std,dinov2-base_svm_sem,dinov2-large_svm_avg,dinov2-large_svm_med,dinov2-large_svm_std,dinov2-large_svm_sem,dinov2-giant_svm_med,dinov2-giant_svm_std,dinov2-giant_svm_sem,CLIP_ViT-B-32_svm_avg,CLIP_ViT-B-32_svm_med,CLIP_ViT-B-32_svm_std,CLIP_ViT-B-32_svm_sem,CLIP_ViT-B-16_svm_avg,CLIP_ViT-B-16_svm_med,CLIP_ViT-B-16_svm_std,CLIP_ViT-B-16_svm_sem,CLIP_ViT-L-14_svm_avg,CLIP_ViT-L-14_svm_med,CLIP_ViT-L-14_svm_std,CLIP_ViT-L-14_svm_sem,CLIP_ViT-H-14_svm_avg,CLIP_ViT-H-14_svm_med,CLIP_ViT-H-14_svm_std,CLIP_ViT-H-14_svm_sem,CLIP_ViT-g-14_svm_avg,CLIP_ViT-g-14_svm_med,CLIP_ViT-g-14_svm_std,CLIP_ViT-g-14_svm_sem,vit-mae-base_svm_avg,vit-mae-base_svm_med,vit-mae-base_svm_std,vit-mae-base_svm_sem,vit-mae-large_svm_avg,vit-mae-large_svm_med,vit-mae-large_svm_std,vit-mae-large_svm_sem,vit-mae-huge_svm_avg,vit-mae-huge_svm_med,vit-mae-huge_svm_std,vit-mae-huge_svm_sem,dino_distance_avg
0,0,barense,familiar_high_screen01,0.9516129032258064,0.032258064516129,0.1796053020267749,3541.7419354838707,220.2536122157108,1226.3202128792177,26,familiar_hisim,"['familiar_high_screen01_image0_typical.png', 'familiar_high_screen01_image1_typical.png', 'familiar_high_screen01_image2_typical.png', 'familiar_high_screen01_image3_oddity.png']",3,,-0.3333333333333333,-0.3066666666666667,0.0,0.1399999999999999,0.0140705294136289,-0.32,0.0,0.0994987437106619,0.0099999999999999,0.0,0.0,0.0,0.68,1.0,0.4270831300812525,0.0429234695990927,0.06666666666666665,0.0,0.4582575694955839,0.0460566186471838,-0.17333333333333334,0.0,0.3249615361854384,0.032659863237109,-0.3333333333333333,0.0,0.0,0.0,-0.13333333333333333,0.0,0.3570714214271425,0.0358870281282636,0.05333333333333331,0.0,0.4537620521815371,0.0456048021572068,-0.013333333333333345,0.0,0.4270831300812525,0.0429234695990927,-0.26666666666666666,0.0,0.2179449471770337,0.021904291355759,-0.3022222222222223
1,1,barense,familiar_high_screen02,0.7599999999999998,0.0748331477354788,0.3741657386773941,4096.8,358.37372950594465,1791.8686475297234,21,familiar_hisim,"['familiar_high_screen02_image0_oddity.png', 'familiar_high_screen02_image1_typical.png', 'familiar_high_screen02_image2_typical.png', 'familiar_high_screen02_image3_typical.png']",0,,0.18666666666666668,-0.21333333333333335,0.0,0.2861817604250837,0.0287623491264661,-0.3066666666666667,0.0,0.1399999999999999,0.0140705294136289,0.0,0.4877499359302879,0.0490207130000197,-0.24,0.0,0.2551470164434615,0.0256432399976242,-0.04,0.0,0.4142463035441596,0.0416333199893226,0.06666666666666665,0.0,0.4582575694955839,0.0460566186471838,-0.32,0.0,0.0994987437106619,0.0099999999999999,0.28,0.0,0.4983974317750844,0.0500908265962033,0.10666666666666669,0.0,0.4702127178203498,0.047258156262526,0.013333333333333345,0.0,0.4386342439892262,0.0440844002276808,0.040000000000000036,0.0,0.4489988864128729,0.0451260859854212,-0.27999999999999997
2,2,barense,familiar_high_screen03,0.4677419354838709,0.0873552516627522,0.48637345711392,7133.225806451613,715.3461823942117,3982.8789814209968,30,familiar_hisim,"['familiar_high_screen03_image0_typical.png', 'familiar_high_screen03_image1_typical.png', 'familiar_high_screen03_image2_oddity.png', 'familiar_high_screen03_image3_typical.png']",2,,-0.24,-0.3333333333333333,0.0,0.0,0.0,-0.3333333333333333,0.0,0.0,0.0,0.0,0.2551470164434614,0.0256432399976242,-0.17333333333333334,0.0,0.3249615361854384,0.032659863237109,-0.3066666666666667,0.0,0.1399999999999999,0.0140705294136289,-0.21333333333333335,0.0,0.2861817604250837,0.0287623491264661,-0.3066666666666667,0.0,0.1399999999999999,0.0140705294136289,0.0,0.0,0.4330127018922193,0.0435194139889244,-0.026666666666666655,0.0,0.4208325082500163,0.042295258468165,-0.026666666666666655,0.0,0.4208325082500163,0.042295258468165,-0.24,0.0,0.2551470164434614,0.0256432399976242,0.05333333333333331
3,3,barense,familiar_high_screen05,0.1857142857142857,0.0854337144681602,0.5054326709601878,5802.085714285714,357.3378515075726,2114.039239040203,29,familiar_hisim,"['familiar_high_screen05_image0_typical.png', 'familiar_high_screen05_image1_oddity.png', 'familiar_high_screen05_image2_typical.png', 'familiar_high_screen05_image3_typical.png']",1,,-0.3333333333333333,-0.3333333333333333,0.0,0.0,0.0,-0.3333333333333333,0.0,0.0,0.0,0.0,0.0,0.0,-0.26666666666666666,0.0,0.2179449471770336,0.021904291355759,-0.14666666666666664,0.0,0.3469870314579494,0.0348735088019777,-0.13333333333333333,0.0,0.3570714214271425,0.0358870281282636,-0.3333333333333333,0.0,0.0,0.0,-0.14666666666666664,0.0,0.3469870314579494,0.0348735088019777,-0.29333333333333333,0.0,0.1705872210923198,0.0171446607997765,-0.3066666666666667,0.0,0.1399999999999999,0.0140705294136289,-0.3333333333333333,0.0,0.0,0.0,-0.17333333333333334
4,4,barense,familiar_high_screen06,0.5285714285714286,0.0796149195450555,0.4710082159536055,4568.314285714286,524.8969947313769,3105.3324987400447,27,familiar_hisim,"['familiar_high_screen06_image0_typical.png', 'familiar_high_screen06_image1_typical.png', 'familiar_high_screen06_image2_typical.png', 'familiar_high_screen06_image3_oddity.png']",3,,0.49333333333333335,-0.26666666666666666,0.0,0.2179449471770336,0.021904291355759,-0.3066666666666667,0.0,0.1399999999999999,0.0140705294136289,1.0,0.4853864439804639,0.0487831731214563,0.013333333333333345,0.0,0.4386342439892262,0.0440844002276808,0.3866666666666667,1.0,0.4983974317750845,0.0500908265962033,0.05333333333333331,0.0,0.4537620521815371,0.0456048021572068,0.7599999999999999,1.0,0.3841874542459709,0.0386122919665369,-0.16,0.0,0.3363034344160047,0.0337997668989631,0.7466666666666667,1.0,0.3923009049186606,0.0394277244403662,0.4666666666666666,1.0,0.4898979485566356,0.0492365963917331,0.3466666666666667,1.0,0.4998999899979994,0.0502418393795691,-0.13333333333333333
5,5,barense,familiar_high_screen07,0.763157894736842,0.0599468207843683,0.3695370214766319,5958.3421052631575,540.2192935952664,3330.1353781126686,32,familiar_hisim,"['familiar_high_screen07_image0_oddity.png', 'familiar_high_screen07_image1_typical.png', 'familiar_high_screen07_image2_typical.png', 'familiar_high_screen07_image3_typical.png']",0,,-0.32,-0.09333333333333334,0.0,0.3841874542459709,0.0386122919665369,-0.3333333333333333,0.0,0.0,0.0,0.0,0.0994987437106619,0.0099999999999999,-0.24,0.0,0.2551470164434615,0.0256432399976242,-0.18666666666666668,0.0,0.3128897569432403,0.031446603773522,-0.17333333333333334,0.0,0.3249615361854384,0.032659863237109,-0.26666666666666666,0.0,0.2179449471770336,0.021904291355759,0.10666666666666669,0.0,0.4702127178203498,0.047258156262526,-0.10666666666666665,0.0,0.375632799419859,0.0377525168068636,-0.12,0.0,0.3666060555964672,0.036845294917747,-0.14666666666666664,0.0,0.3469870314579494,0.0348735088019777,-0.1111111111111112
6,6,barense,familiar_high_screen08,0.0571428571428571,0.0828658355335869,0.4902408943099112,4505.8,383.9338830510038,2271.383483564976,30,familiar_hisim,"['familiar_high_screen08_image0_oddity.png', 'familiar_high_screen08_image1_typical.png', 'familiar_high_screen08_image2_typical.png', 'familiar_high_screen08_image3_typical.png']",0,,0.10666666666666669,-0.21333333333333335,0.0,0.2861817604250837,0.0287623491264661,-0.04,0.0,0.4142463035441596,0.0416333199893226,0.0,0.4702127178203498,0.047258156262526,0.4533333333333333,1.0,0.4918333050943175,0.049431107042371,0.02666666666666669,0.0,0.4439594576084623,0.0446196043338473,-0.013333333333333345,0.0,0.4270831300812525,0.0429234695990927,-0.16,0.0,0.3363034344160047,0.0337997668989631,0.2933333333333333,0.0,0.4990991885387111,0.0501613558046591,0.7733333333333333,1.0,0.375632799419859,0.0377525168068636,0.2133333333333333,0.0,0.4918333050943174,0.049431107042371,0.32,0.0,0.4998999899979995,0.0502418393795691,0.2888888888888889
7,7,barense,familiar_high_screen09,0.8269230769230769,0.0638971066378313,0.3258125936084211,2579.423076923077,245.90694408236828,1253.8843064039656,21,familiar_hisim,"['familiar_high_screen09_image0_typical.png', 'familiar_high_screen09_image1_typical.png', 'familiar_high_screen09_image2_typical.png', 'familiar_high_screen09_image3_oddity.png']",3,,0.9333333333333332,-0.22666666666666666,0.0,0.2712931993250107,0.027265992434429,0.96,1.0,0.1705872210923198,0.0171446607997765,1.0,0.2179449471770337,0.021904291355759,0.6666666666666666,1.0,0.4330127018922193,0.0435194139889244,0.0,0.0,0.4330127018922193,0.0435194139889244,0.3466666666666667,1.0,0.4998999899979995,0.0502418393795691,0.3333333333333333,0.5,0.5,0.0502518907629606,0.10666666666666669,0.0,0.4702127178203498,0.047258156262526,0.06666666666666665,0.0,0.4582575694955839,0.0460566186471838,-0.12,0.0,0.3666060555964672,0.036845294917747,-0.21333333333333335,0.0,0.2861817604250837,0.0287623491264661,0.07111111111111106
8,8,barense,familiar_high_screen10,0.3181818181818181,0.1086571463031267,0.5096471914376256,7797.772727272727,674.6579057182466,3164.426073470333,21,familiar_hisim,"['familiar_high_screen10_image0_typical.png', 'familiar_high_screen10_image1_typical.png', 'familiar_high_screen10_image2_typical.png', 'familiar_high_screen10_image3_oddity.png']",3,,-0.3333333333333333,-0.24,0.0,0.2551470164434615,0.0256432399976242,0.6,1.0,0.458257569495584,0.0460566186471838,0.0,0.0,0.0,-0.27999999999999997,0.0,0.1959591794226542,0.0196946385566932,0.02666666666666669,0.0,0.4439594576084623,0.0446196043338473,-0.10666666666666665,0.0,0.375632799419859,0.0377525168068636,-0.06666666666666665,0.0,0.4,0.0402015126103684,-0.10666666666666665,0.0,0.375632799419859,0.0377525168068636,-0.29333333333333333,0.0,0.1705872210923198,0.0171446607997765,-0.04,0.0,0.4142463035441596,0.0416333199893226,-0.013333333333333345,0.0,0.4270831300812525,0.0429234695990927,-0.32888888888888895
9,9,barense,familiar_high_screen12,0.6363636363636364,0.0757575757575757,0.4351941398892445,3465.818181818182,301.89892528486126,1734.2772892213893,25,familiar_hisim,"['familiar_high_screen12_image0_typical.png', 'familiar_high_screen12_image1_oddity.png', 'familiar_high_screen12_image2_typical.png', 'familiar_high_screen12_image3_typical.png']",1,,-0.3333333333333333,-0.3333333333333333,0.0,0.0,0.0,-0.3333333333333333,0.0,0.0,0.0,0.0,0.0,0.0,-0.32,0.0,0.0994987437106619,0.0099999999999999,-0.32,0.0,0.0994987437106619,0.0099999999999999,-0.25333333333333335,0.0,0.2374868417407583,0.0238683256575942,-0.3333333333333333,0.0,0.0,0.0,-0.3333333333333333,0.0,0.0,0.0,-0.32,0.0,0.0994987437106619,0.0099999999999999,0.24,0.0,0.4950757517794625,0.0497569851956243,-0.3066666666666667,0.0,0.1399999999999999,0.0140705294136289,-0.11555555555555559
10,10,barense,familiar_high_screen13,0.4444444444444445,0.0947052429549553,0.4921028776234113,5207.222222222223,563.4915176010701,2927.987814357437,20,familiar_hisim,"['familiar_high_screen13_image0_typical.png', 'familiar_high_screen13_image1_typical.png', 'familiar_high_screen13_image2_typical.png', 'familiar_high_screen13_image3_oddity.png']",3,,-0.32,-0.29333333333333333,0.0,0.1705872210923198,0.0171446607997765,-0.32,0.0,0.0994987437106619,0.0099999999999999,0.0,0.0994987437106619,0.0099999999999999,0.6666666666666666,1.0,0.4330127018922193,0.0435194139889244,-0.17333333333333334,0.0,0.3249615361854384,0.032659863237109,0.22666666666666666,0.0,0.4935585071701227,0.0496044963748858,0.5333333333333333,1.0,0.4769696007084728,0.0479372485441102,0.26666666666666666,0.0,0.49749371855331,0.05,0.7999999999999999,1.0,0.3570714214271425,0.0358870281282636,0.4666666666666666,1.0,0.4898979485566356,0.0492365963917331,0.28,0.0,0.4983974317750844,0.0500908265962033,-0.04888888888888895
11,11,barense,familiar_high_screen16,0.1818181818181818,0.0880223487774412,0.5056498968474316,5225.636363636364,423.72759800036926,2434.129731780203,25,familiar_hisim,"['familiar_high_screen16_image0_oddity.png', 'familiar_high_screen16_image1_typical.png', 'familiar_high_screen16_image2_typical.png', 'familiar_high_screen16_image3_typical.png']",0,,-0.3333333333333333,0.6933333333333334,1.0,0.4208325082500163,0.042295258468165,-0.3333333333333333,0.0,0.0,0.0,0.0,0.0,0.0,0.5466666666666667,1.0,0.4737087712930805,0.0476095228569523,0.5466666666666667,1.0,0.4737087712930805,0.0476095228569523,0.6533333333333333,1.0,0.4386342439892262,0.0440844002276808,0.8933333333333334,1.0,0.2712931993250107,0.027265992434429,0.24,0.0,0.4950757517794625,0.0497569851956243,0.8266666666666667,1.0,0.3363034344160047,0.0337997668989631,0.36000000000000004,1.0,0.4995998398718718,0.0502116731568678,0.06666666666666665,0.0,0.4582575694955839,0.0460566186471838,-0.22666666666666666
12,12,barense,familiar_high_screen17,0.7499999999999999,0.0777087340200261,0.3806934938134405,5225.458333333333,567.8662579173362,2781.965148082363,21,familiar_hisim,"['familiar_high_screen17_image0_typical.png', 'familiar_high_screen17_image1_typical.png', 'familiar_high_screen17_image2_oddity.png', 'familiar_high_screen17_image3_typical.png']",2,,0.64,-0.29333333333333333,0.0,0.1705872210923198,0.0171446607997765,0.9866666666666667,1.0,0.0994987437106619,0.0099999999999999,1.0,0.4439594576084623,0.0446196043338473,-0.27999999999999997,0.0,0.1959591794226542,0.0196946385566932,-0.26666666666666666,0.0,0.2179449471770336,0.021904291355759,-0.24,0.0,0.2551470164434614,0.0256432399976242,0.28,0.0,0.4983974317750844,0.0500908265962033,-0.3333333333333333,0.0,0.0,0.0,0.22666666666666666,0.0,0.4935585071701227,0.0496044963748858,-0.06666666666666665,0.0,0.4,0.0402015126103684,-0.24,0.0,0.2551470164434614,0.0256432399976242,-0.16888888888888895
13,13,barense,familiar_high_screen18,0.65,0.0785403232453172,0.4301830671520762,3619.6,373.8261585036676,2047.530195979604,26,familiar_hisim,"['familiar_high_screen18_image0_typical.png', 'familiar_high_screen18_image1_oddity.png', 'familiar_high_screen18_image2_typical.png', 'familiar_high_screen18_image3_typical.png']",1,,-0.3333333333333333,-0.21333333333333335,0.0,0.2861817604250837,0.0287623491264661,0.8666666666666667,1.0,0.3,0.0301511344577763,0.0,0.0,0.0,-0.3333333333333333,0.0,0.0,0.0,0.28,0.0,0.4983974317750844,0.0500908265962033,-0.26666666666666666,0.0,0.2179449471770336,0.021904291355759,-0.3333333333333333,0.0,0.0,0.0,-0.32,0.0,0.0994987437106619,0.0099999999999999,-0.3066666666666667,0.0,0.1399999999999999,0.0140705294136289,-0.16,0.0,0.3363034344160047,0.0337997668989631,-0.21333333333333335,0.0,0.2861817604250837,0.0287623491264661,0.4533333333333333
14,14,barense,familiar_high_screen19,0.3124999999999999,0.1038945721662294,0.5089773777040516,7738.166666666667,846.3079998891235,4146.04552992751,22,familiar_hisim,"['familiar_high_screen19_image0_typical.png', 'familiar_high_screen19_image1_typical.png', 'familiar_high_screen19_image2_oddity.png', 'familiar_high_screen19_image3_typical.png']",2,,-0.29333333333333333,0.16,0.0,0.4828043081829324,0.0485236587093909,0.9866666666666667,1.0,0.0994987437106619,0.0099999999999999,0.0,0.1705872210923198,0.0171446607997765,0.05333333333333331,0.0,0.4537620521815371,0.0456048021572068,0.52,1.0,0.48,0.0482418151324421,0.6666666666666666,1.0,0.4330127018922193,0.0435194139889244,0.9333333333333332,1.0,0.2179449471770337,0.021904291355759,0.05333333333333331,0.0,0.4537620521815371,0.0456048021572068,-0.17333333333333334,0.0,0.3249615361854384,0.032659863237109,0.37333333333333335,1.0,0.4990991885387111,0.0501613558046591,-0.27999999999999997,0.0,0.1959591794226542,0.0196946385566932,0.11555555555555548
15,15,barense,familiar_high_screen24,0.6538461538461539,0.1216260638526299,0.4385290096535146,4853.076923076923,748.1673974687138,2697.555914203894,12,familiar_hisim,"['familiar_high_screen24_image0_typical.png', 'familiar_high_screen24_image1_typical.png', 'familiar_high_screen24_image2_typical.png', 'familiar_high_screen24_image3_oddity.png']",3,,0.9333333333333332,0.68,1.0,0.4270831300812525,0.0429234695990927,0.7866666666666666,1.0,0.3666060555964672,0.036845294917747,1.0,0.2179449471770337,0.021904291355759,-0.053333333333333344,0.0,0.407308237088326,0.0409360180740332,0.20000000000000004,0.0,0.4898979485566356,0.0492365963917331,-0.08,0.0,0.3923009049186606,0.0394277244403662,-0.26666666666666666,0.0,0.2179449471770336,0.021904291355759,0.2933333333333333,0.0,0.4990991885387111,0.0501613558046591,0.8266666666666667,1.0,0.3363034344160047,0.0337997668989631,0.08,0.0,0.462493243193887,0.0464823198711731,0.17333333333333334,0.0,0.4853864439804639,0.0487831731214563,0.7066666666666667
16,16,barense,familiar_high_screen25,0.9545454545454546,0.0303030303030303,0.1740776559556978,3660.3030303030314,340.9647672548921,1958.693465757986,28,familiar_hisim,"['familiar_high_screen25_image0_oddity.png', 'familiar_high_screen25_image1_typical.png', 'familiar_high_screen25_image2_typical.png', 'familiar_high_screen25_image3_typical.png']",0,,-0.32,-0.3066666666666667,0.0,0.1399999999999999,0.0140705294136289,-0.32,0.0,0.0994987437106619,0.0099999999999999,0.0,0.0994987437106619,0.0099999999999999,-0.26666666666666666,0.0,0.2179449471770336,0.021904291355759,-0.10666666666666665,0.0,0.375632799419859,0.0377525168068636,-0.053333333333333344,0.0,0.4073082370883261,0.0409360180740332,0.17333333333333334,0.0,0.4853864439804639,0.0487831731214563,0.22666666666666666,0.0,0.4935585071701227,0.0496044963748858,-0.16,0.0,0.3363034344160047,0.0337997668989631,-0.09333333333333334,0.0,0.3841874542459709,0.0386122919665369,0.02666666666666669,0.0,0.4439594576084623,0.0446196043338473,-0.18222222222222229
17,17,barense,familiar_high_screen26,0.8064516129032256,0.061205374067775,0.3407771005482389,5142.645161290323,443.1214754889929,2467.195959632272,25,familiar_hisim,"['familiar_high_screen26_image0_typical.png', 'familiar_high_screen26_image1_oddity.png', 'familiar_high_screen26_image2_typical.png', 'familiar_high_screen26_image3_typical.png']",1,,-0.21333333333333335,0.3333333333333333,0.5,0.5,0.0502518907629606,-0.26666666666666666,0.0,0.2179449471770336,0.021904291355759,0.0,0.2861817604250837,0.0287623491264661,0.6133333333333333,1.0,0.4537620521815371,0.0456048021572068,0.4533333333333333,1.0,0.4918333050943174,0.049431107042371,0.32,0.0,0.4998999899979994,0.0502418393795691,-0.3066666666666667,0.0,0.1399999999999999,0.0140705294136289,-0.16,0.0,0.3363034344160047,0.0337997668989631,0.12000000000000004,0.0,0.4737087712930805,0.0476095228569523,-0.26666666666666666,0.0,0.2179449471770336,0.021904291355759,-0.32,0.0,0.0994987437106619,0.0099999999999999,0.7066666666666667
18,18,barense,familiar_high_screen27,1.0,0.0,0.0,4912.117647058823,343.2456662075171,1415.2381373090957,16,familiar_hisim,"['familiar_high_screen27_image0_typical.png', 'familiar_high_screen27_image1_typical.png', 'familiar_high_screen27_image2_oddity.png', 'familiar_high_screen27_image3_typical.png']",2,,-0.3333333333333333,-0.3066666666666667,0.0,0.1399999999999999,0.0140705294136289,-0.32,0.0,0.0994987437106619,0.0099999999999999,0.0,0.0,0.0,-0.22666666666666666,0.0,0.2712931993250107,0.027265992434429,-0.19999999999999998,0.0,0.3,0.0301511344577763,-0.14666666666666664,0.0,0.3469870314579494,0.0348735088019777,-0.32,0.0,0.0994987437106619,0.0099999999999999,-0.24,0.0,0.2551470164434614,0.0256432399976242,0.16,0.0,0.4828043081829324,0.0485236587093909,0.5333333333333333,1.0,0.4769696007084728,0.0479372485441102,0.30666666666666664,0.0,0.4995998398718718,0.0502116731568678,-0.017777777777777854
19,19,barense,familiar_high_screen28,0.6538461538461539,0.0842650088469486,0.4296689244236596,4385.038461538462,331.8416790290641,1692.0671967925916,21,familiar_hisim,"['familiar_high_screen28_image0_typical.png', 'familiar_high_screen28_image1_typical.png', 'familiar_high_screen28_image2_oddity.png', 'familiar_high_screen28_image3_typical.png']",2,,-0.3333333333333333,-0.3333333333333333,0.0,0.0,0.0,-0.3333333333333333,0.0,0.0,0.0,0.0,0.0,0.0,-0.25333333333333335,0.0,0.2374868417407583,0.0238683256575942,-0.026666666666666655,0.0,0.4208325082500163,0.042295258468165,-0.19999999999999998,0.0,0.3,0.0301511344577763,-0.29333333333333333,0.0,0.1705872210923198,0.0171446607997765,-0.26666666666666666,0.0,0.2179449471770337,0.021904291355759,0.28,0.0,0.4983974317750844,0.0500908265962033,-0.26666666666666666,0.0,0.2179449471770336,0.021904291355759,-0.32,0.0,0.0994987437106619,0.0099999999999999,-0.3333333333333333
20,20,barense,familiar_high_screen29,0.6379310344827586,0.080869237238335,0.4354941703556927,6095.586206896552,623.8322085518694,3359.439255050519,27,familiar_hisim,"['familiar_high_screen29_image0_typical.png', 'familiar_high_screen29_image1_oddity.png', 'familiar_high_screen29_image2_typical.png', 'familiar_high_screen29_image3_typical.png']",1,,0.8533333333333334,0.6933333333333334,1.0,0.4208325082500163,0.042295258468165,0.9466666666666667,1.0,0.1959591794226542,0.0196946385566932,1.0,0.3128897569432403,0.031446603773522,-0.32,0.0,0.0994987437106619,0.0099999999999999,-0.29333333333333333,0.0,0.1705872210923198,0.0171446607997765,-0.32,0.0,0.0994987437106619,0.0099999999999999,-0.3333333333333333,0.0,0.0,0.0,-0.24,0.0,0.2551470164434614,0.0256432399976242,-0.29333333333333333,0.0,0.1705872210923198,0.0171446607997765,-0.09333333333333334,0.0,0.384187454245971,0.0386122919665369,-0.19999999999999998,0.0,0.3,0.0301511344577763,0.8266666666666667
21,21,barense,familiar_high_screen30,0.3636363636363637,0.0873678984444757,0.5018903659106632,4548.060606060606,345.1165178169024,1982.543456954253,27,familiar_hisim,"['familiar_high_screen30_image0_typical.png', 'familiar_high_screen30_image1_typical.png', 'familiar_high_screen30_image2_typical.png', 'familiar_high_screen30_image3_oddity.png']",3,,0.9066666666666667,0.7066666666666667,1.0,0.4142463035441596,0.0416333199893226,0.9733333333333333,1.0,0.1399999999999999,0.0140705294136289,1.0,0.2551470164434615,0.0256432399976242,-0.26666666666666666,0.0,0.2179449471770336,0.021904291355759,-0.21333333333333335,0.0,0.2861817604250837,0.0287623491264661,-0.18666666666666668,0.0,0.3128897569432403,0.031446603773522,0.8666666666666667,1.0,0.3,0.0301511344577763,0.08,0.0,0.462493243193887,0.0464823198711731,-0.25333333333333335,0.0,0.2374868417407583,0.0238683256575942,-0.06666666666666665,0.0,0.4,0.0402015126103684,0.013333333333333345,0.0,0.4386342439892262,0.0440844002276808,0.9911111111111109
22,22,barense,familiar_high_screen32,0.5147058823529412,0.0814374888521379,0.474858079933817,3982.470588235294,303.4422016791378,1769.3568808569985,30,familiar_hisim,"['familiar_high_screen32_image0_oddity.png', 'familiar_high_screen32_image1_typical.png', 'familiar_high_screen32_image2_typical.png', 'familiar_high_screen32_image3_typical.png']",0,,0.9466666666666667,0.8133333333333334,1.0,0.3469870314579494,0.0348735088019777,0.5866666666666666,1.0,0.462493243193887,0.0464823198711731,1.0,0.1959591794226542,0.0196946385566932,0.040000000000000036,0.0,0.4489988864128728,0.0451260859854212,-0.12,0.0,0.3666060555964672,0.036845294917747,-0.053333333333333344,0.0,0.4073082370883261,0.0409360180740332,0.4533333333333333,1.0,0.4918333050943175,0.049431107042371,0.05333333333333331,0.0,0.4537620521815371,0.0456048021572068,0.12000000000000004,0.0,0.4737087712930804,0.0476095228569523,0.3866666666666667,1.0,0.4983974317750844,0.0500908265962033,0.05333333333333331,0.0,0.4537620521815371,0.0456048021572068,-0.062222222222222255
23,23,barense,familiar_high_screen33,0.7272727272727273,0.0841654636156864,0.3947710169758613,3185.590909090909,280.6902951907073,1316.554184191984,20,familiar_hisim,"['familiar_high_screen33_image0_oddity.png', 'familiar_high_screen33_image1_typical.png', 'familiar_high_screen33_image2_typical.png', 'familiar_high_screen33_image3_typical.png']",0,,0.8533333333333334,0.7333333333333334,1.0,0.4,0.0402015126103684,0.5866666666666666,1.0,0.462493243193887,0.0464823198711731,1.0,0.3128897569432403,0.031446603773522,0.68,1.0,0.4270831300812525,0.0429234695990927,0.6133333333333333,1.0,0.4537620521815371,0.0456048021572068,0.56,1.0,0.4702127178203499,0.047258156262526,0.8533333333333334,1.0,0.3128897569432403,0.031446603773522,0.18666666666666668,0.0,0.4877499359302879,0.0490207130000197,0.8133333333333334,1.0,0.3469870314579494,0.0348735088019777,0.4266666666666666,1.0,0.4950757517794625,0.0497569851956243,0.28,0.0,0.4983974317750844,0.0500908265962033,-0.13333333333333333
24,24,barense,familiar_high_screen36,0.7000000000000001,0.0685994340570035,0.4058397249567138,4881.342857142857,395.93081040334647,2342.358262933485,29,familiar_hisim,"['familiar_high_screen36_image0_typical.png', 'familiar_high_screen36_image1_oddity.png', 'familiar_high_screen36_image2_typical.png', 'familiar_high_screen36_image3_typical.png']",1,,0.5866666666666666,0.7599999999999999,1.0,0.3841874542459709,0.0386122919665369,0.4000000000000001,1.0,0.4974937185533099,0.0499999999999999,1.0,0.462493243193887,0.0464823198711731,-0.3333333333333333,0.0,0.0,0.0,-0.32,0.0,0.0994987437106619,0.0099999999999999,-0.3333333333333333,0.0,0.0,0.0,-0.26666666666666666,0.0,0.2179449471770336,0.021904291355759,-0.29333333333333333,0.0,0.1705872210923198,0.0171446607997765,0.18666666666666668,0.0,0.4877499359302879,0.0490207130000197,-0.32,0.0,0.0994987437106619,0.0099999999999999,-0.16,0.0,0.3363034344160047,0.0337997668989631,0.08
25,25,barense,familiar_high_screen37,0.65,0.0785403232453173,0.4301830671520764,3637.266666666667,308.0198677475255,1687.094297250777,27,familiar_hisim,"['familiar_high_screen37_image0_oddity.png', 'familiar_high_screen37_image1_typical.png', 'familiar_high_screen37_image2_typical.png', 'familiar_high_screen37_image3_typical.png']",0,,0.9199999999999999,0.8933333333333334,1.0,0.2712931993250107,0.027265992434429,0.9466666666666667,1.0,0.1959591794226542,0.0196946385566932,1.0,0.2374868417407583,0.0238683256575942,0.48,1.0,0.4877499359302879,0.0490207130000197,-0.26666666666666666,0.0,0.2179449471770336,0.021904291355759,0.02666666666666669,0.0,0.4439594576084623,0.0446196043338473,-0.026666666666666655,0.0,0.4208325082500163,0.042295258468165,0.08,0.0,0.462493243193887,0.0464823198711731,-0.24,0.0,0.2551470164434614,0.0256432399976242,-0.19999999999999998,0.0,0.3,0.0301511344577763,0.06666666666666665,0.0,0.4582575694955839,0.0460566186471838,0.6577777777777777
26,26,barense,familiar_high_screen38,0.7777777777777778,0.0696696254167378,0.3620139928982457,4768.074074074074,479.9519293531566,2493.903380491127,22,familiar_hisim,"['familiar_high_screen38_image0_typical.png', 'familiar_high_screen38_image1_typical.png', 'familiar_high_screen38_image2_oddity.png', 'familiar_high_screen38_image3_typical.png']",2,,0.9733333333333333,0.22666666666666666,0.0,0.4935585071701227,0.0496044963748858,0.9333333333333332,1.0,0.2179449471770337,0.021904291355759,1.0,0.1399999999999999,0.0140705294136289,-0.3066666666666667,0.0,0.1399999999999999,0.0140705294136289,0.02666666666666669,0.0,0.4439594576084623,0.0446196043338473,0.0,0.0,0.4330127018922193,0.0435194139889244,-0.3066666666666667,0.0,0.1399999999999999,0.0140705294136289,-0.29333333333333333,0.0,0.1705872210923198,0.0171446607997765,0.68,1.0,0.4270831300812525,0.0429234695990927,-0.3066666666666667,0.0,0.1399999999999999,0.0140705294136289,-0.3066666666666667,0.0,0.1399999999999999,0.0140705294136289,0.5022222222222222
27,27,barense,familiar_high_screen39,0.8783783783783783,0.0454932654881174,0.2767247306920301,3304.0,215.18876412165253,1308.9421513403695,27,familiar_hisim,"['familiar_high_screen39_image0_oddity.png', 'familiar_high_screen39_image1_typical.png', 'familiar_high_screen39_image2_typical.png', 'familiar_high_screen39_image3_typical.png']",0,,0.040000000000000036,-0.25333333333333335,0.0,0.2374868417407583,0.0238683256575942,-0.3333333333333333,0.0,0.0,0.0,0.0,0.4489988864128729,0.0451260859854212,-0.14666666666666664,0.0,0.3469870314579494,0.0348735088019777,-0.24,0.0,0.2551470164434614,0.0256432399976242,0.4533333333333333,1.0,0.4918333050943174,0.049431107042371,0.05333333333333331,0.0,0.4537620521815371,0.0456048021572068,0.05333333333333331,0.0,0.4537620521815371,0.0456048021572068,0.7466666666666667,1.0,0.3923009049186606,0.0394277244403662,0.22666666666666666,0.0,0.4935585071701227,0.0496044963748858,-0.10666666666666665,0.0,0.375632799419859,0.0377525168068636,-0.017777777777777854
28,28,barense,familiar_high_screen40,0.5434782608695652,0.0981001869248289,0.4704719688969648,6020.391304347826,631.4228356560026,3028.197539778564,19,familiar_hisim,"['familiar_high_screen40_image0_typical.png', 'familiar_high_screen40_image1_typical.png', 'familiar_high_screen40_image2_typical.png', 'familiar_high_screen40_image3_oddity.png']",3,,0.9733333333333333,0.64,1.0,0.4439594576084623,0.0446196043338473,0.9466666666666667,1.0,0.1959591794226542,0.0196946385566932,1.0,0.1399999999999999,0.0140705294136289,0.4666666666666666,1.0,0.4898979485566356,0.0492365963917331,-0.17333333333333334,0.0,0.3249615361854384,0.032659863237109,0.14666666666666664,0.0,0.48,0.0482418151324421,0.22666666666666666,0.0,0.4935585071701227,0.0496044963748858,0.24,0.0,0.4950757517794625,0.0497569851956243,-0.21333333333333335,0.0,0.2861817604250837,0.0287623491264661,0.0,0.0,0.4330127018922193,0.0435194139889244,0.4666666666666666,1.0,0.4898979485566356,0.0492365963917331,0.22666666666666666
29,29,barense,familiar_high_screen41,0.7794117647058821,0.0616521340660294,0.359490627953571,4142.970588235294,452.801079133364,2640.261310360685,29,familiar_hisim,"['familiar_high_screen41_image0_oddity.png', 'familiar_high_screen41_image1_typical.png', 'familiar_high_screen41_image2_typical.png', 'familiar_high_screen41_image3_typical.png']",0,,-0.32,0.0,0.0,0.4330127018922193,0.0435194139889244,0.7733333333333333,1.0,0.375632799419859,0.0377525168068636,0.0,0.0994987437106619,0.01,0.6933333333333334,1.0,0.4208325082500163,0.042295258468165,-0.12,0.0,0.3666060555964671,0.036845294917747,-0.12,0.0,0.3666060555964672,0.036845294917747,0.14666666666666664,0.0,0.48,0.0482418151324421,0.24,0.0,0.4950757517794625,0.0497569851956243,0.6933333333333334,1.0,0.4208325082500163,0.042295258468165,0.22666666666666666,0.0,0.4935585071701227,0.0496044963748858,0.3333333333333333,0.5,0.5,0.0502518907629606,0.52
30,30,barense,familiar_high_screen42,0.5499999999999999,0.0850962943396763,0.466091599699399,5902.6,525.992466621461,2880.979390463573,26,familiar_hisim,"['familiar_high_screen42_image0_oddity.png', 'familiar_high_screen42_image1_typical.png', 'familiar_high_screen42_image2_typical.png', 'familiar_high_screen42_image3_typical.png']",0,,-0.3066666666666667,-0.26666666666666666,0.0,0.2179449471770336,0.021904291355759,-0.3333333333333333,0.0,0.0,0.0,0.0,0.1399999999999999,0.0140705294136289,0.2133333333333333,0.0,0.4918333050943174,0.049431107042371,-0.3066666666666667,0.0,0.1399999999999999,0.0140705294136289,-0.24,0.0,0.2551470164434614,0.0256432399976242,-0.32,0.0,0.0994987437106619,0.0099999999999999,-0.21333333333333335,0.0,0.2861817604250837,0.0287623491264661,0.4533333333333333,1.0,0.4918333050943174,0.049431107042371,-0.16,0.0,0.3363034344160047,0.0337997668989631,0.14666666666666664,0.0,0.48,0.0482418151324421,-0.004444444444444547
31,31,barense,familiar_high_screen44,0.5909090909090909,0.0787295821622217,0.4522670168666455,4667.121212121212,388.78972017089154,2233.4269038516763,30,familiar_hisim,"['familiar_high_screen44_image0_typical.png', 'familiar_high_screen44_image1_typical.png', 'familiar_high_screen44_image2_oddity.png', 'familiar_high_screen44_image3_typical.png']",2,,-0.3333333333333333,-0.10666666666666665,0.0,0.375632799419859,0.0377525168068636,-0.3333333333333333,0.0,0.0,0.0,0.0,0.0,0.0,0.48,1.0,0.4877499359302879,0.0490207130000197,-0.026666666666666655,0.0,0.4208325082500163,0.042295258468165,-0.17333333333333334,0.0,0.3249615361854384,0.032659863237109,0.32,0.0,0.4998999899979995,0.0502418393795691,-0.27999999999999997,0.0,0.1959591794226542,0.0196946385566932,-0.013333333333333345,0.0,0.4270831300812525,0.0429234695990927,-0.013333333333333345,0.0,0.4270831300812525,0.0429234695990927,-0.27999999999999997,0.0,0.1959591794226542,0.0196946385566932,-0.1111111111111112
32,32,barense,familiar_high_screen45,0.7954545454545453,0.0748867700952649,0.3512500866571044,5548.181818181818,724.2906385987238,3397.2242259760305,21,familiar_hisim,"['familiar_high_screen45_image0_typical.png', 'familiar_high_screen45_image1_oddity.png', 'familiar_high_screen45_image2_typical.png', 'familiar_high_screen45_image3_typical.png']",1,,-0.3333333333333333,-0.3066666666666667,0.0,0.1399999999999999,0.0140705294136289,-0.3333333333333333,0.0,0.0,0.0,0.0,0.0,0.0,-0.32,0.0,0.0994987437106619,0.0099999999999999,-0.24,0.0,0.2551470164434614,0.0256432399976242,-0.26666666666666666,0.0,0.2179449471770336,0.021904291355759,-0.3333333333333333,0.0,0.0,0.0,-0.3333333333333333,0.0,0.0,0.0,0.22666666666666666,0.0,0.4935585071701227,0.0496044963748858,-0.3066666666666667,0.0,0.1399999999999999,0.0140705294136289,-0.32,0.0,0.0994987437106619,0.0099999999999999,-0.12
33,33,barense,familiar_high_screen46,0.6911764705882352,0.0703874148721293,0.4104256301219047,5088.705882352941,398.4332339826968,2323.2450206607477,28,familiar_hisim,"['familiar_high_screen46_image0_typical.png', 'familiar_high_screen46_image1_typical.png', 'familiar_high_screen46_image2_typical.png', 'familiar_high_screen46_image3_oddity.png']",3,,-0.32,-0.19999999999999998,0.0,0.3,0.0301511344577763,-0.3333333333333333,0.0,0.0,0.0,0.0,0.0994987437106619,0.0099999999999999,-0.25333333333333335,0.0,0.2374868417407583,0.0238683256575942,-0.19999999999999998,0.0,0.3,0.0301511344577763,-0.22666666666666666,0.0,0.2712931993250107,0.027265992434429,-0.27999999999999997,0.0,0.1959591794226542,0.0196946385566932,-0.16,0.0,0.3363034344160047,0.0337997668989631,-0.29333333333333333,0.0,0.1705872210923198,0.0171446607997765,0.02666666666666669,0.0,0.4439594576084623,0.0446196043338473,-0.013333333333333345,0.0,0.4270831300812525,0.0429234695990927,-0.06666666666666665
34,34,barense,familiar_high_screen47,0.3275862068965517,0.0939841577750685,0.5061201788784757,4113.172413793103,279.1225831530359,1503.1211116722031,23,familiar_hisim,"['familiar_high_screen47_image0_oddity.png', 'familiar_high_screen47_image1_typical.png', 'familiar_high_screen47_image2_typical.png', 'familiar_high_screen47_image3_typical.png']",0,,0.9466666666666667,-0.053333333333333344,0.0,0.4073082370883261,0.0409360180740332,0.96,1.0,0.1705872210923198,0.0171446607997765,1.0,0.1959591794226542,0.0196946385566932,0.17333333333333334,0.0,0.4853864439804639,0.0487831731214563,0.040000000000000036,0.0,0.4489988864128729,0.0451260859854212,0.6266666666666666,1.0,0.4489988864128729,0.0451260859854212,-0.18666666666666668,0.0,0.3128897569432403,0.031446603773522,0.05333333333333331,0.0,0.4537620521815371,0.0456048021572068,0.30666666666666664,0.0,0.4995998398718718,0.0502116731568678,0.2133333333333333,0.0,0.4918333050943174,0.049431107042371,-0.08,0.0,0.3923009049186606,0.0394277244403662,0.9377777777777778
35,35,barense,familiar_low_screen01,1.0,0.0,0.0,1893.4782608695648,161.42622575628118,774.1729821713689,18,familiar_lowsim,"['familiar_low_screen01_image0_oddity.png', 'familiar_low_screen01_image1_typical.png', 'familiar_low_screen01_image2_typical.png', 'familiar_low_screen01_image3_typical.png']",0,,1.0,1.0,1.0,0.0,0.0,1.0,1.0,0.0,0.0,1.0,0.0,0.0,1.0,1.0,0.0,0.0,1.0,1.0,0.0,0.0,1.0,1.0,0.0,0.0,1.0,1.0,0.0,0.0,1.0,1.0,0.0,0.0,1.0,1.0,0.0,0.0,0.7066666666666667,1.0,0.4142463035441596,0.0416333199893226,0.9066666666666667,1.0,0.2551470164434615,0.0256432399976242,1.0
36,36,barense,familiar_low_screen02,1.0,0.0,0.0,1703.1142857142856,104.30573009251242,617.081021061758,26,familiar_lowsim,"['familiar_low_screen02_image0_typical.png', 'familiar_low_screen02_image1_oddity.png', 'familiar_low_screen02_image2_typical.png', 'familiar_low_screen02_image3_typical.png']",1,,1.0,1.0,1.0,0.0,0.0,1.0,1.0,0.0,0.0,1.0,0.0,0.0,1.0,1.0,0.0,0.0,1.0,1.0,0.0,0.0,1.0,1.0,0.0,0.0,1.0,1.0,0.0,0.0,1.0,1.0,0.0,0.0,-0.053333333333333344,0.0,0.4073082370883261,0.0409360180740332,1.0,1.0,0.0,0.0,1.0,1.0,0.0,0.0,0.9955555555555557
37,37,barense,familiar_low_screen03,1.0,0.0,0.0,2199.6296296296296,155.13773081294437,806.1192958168903,23,familiar_lowsim,"['familiar_low_screen03_image0_typical.png', 'familiar_low_screen03_image1_typical.png', 'familiar_low_screen03_image2_oddity.png', 'familiar_low_screen03_image3_typical.png']",2,,1.0,1.0,1.0,0.0,0.0,1.0,1.0,0.0,0.0,1.0,0.0,0.0,1.0,1.0,0.0,0.0,1.0,1.0,0.0,0.0,1.0,1.0,0.0,0.0,1.0,1.0,0.0,0.0,1.0,1.0,0.0,0.0,-0.3333333333333333,0.0,0.0,0.0,0.7333333333333334,1.0,0.4,0.0402015126103684,1.0,1.0,0.0,0.0,1.0
38,38,barense,familiar_low_screen04,0.953125,0.0312499999999999,0.1767766952966368,3092.59375,274.765618077976,1554.309054238799,26,familiar_lowsim,"['familiar_low_screen04_image0_typical.png', 'familiar_low_screen04_image1_typical.png', 'familiar_low_screen04_image2_typical.png', 'familiar_low_screen04_image3_oddity.png']",3,,1.0,1.0,1.0,0.0,0.0,1.0,1.0,0.0,0.0,1.0,0.0,0.0,1.0,1.0,0.0,0.0,1.0,1.0,0.0,0.0,1.0,1.0,0.0,0.0,1.0,1.0,0.0,0.0,1.0,1.0,0.0,0.0,-0.26666666666666666,0.0,0.2179449471770336,0.021904291355759,0.9733333333333333,1.0,0.1399999999999999,0.0140705294136289,1.0,1.0,0.0,0.0,0.9955555555555557
39,39,barense,familiar_low_screen05,1.0,0.0,0.0,2073.3529411764707,150.02642596903613,874.7968727810194,29,familiar_lowsim,"['familiar_low_screen05_image0_oddity.png', 'familiar_low_screen05_image1_typical.png', 'familiar_low_screen05_image2_typical.png', 'familiar_low_screen05_image3_typical.png']",0,,1.0,1.0,1.0,0.0,0.0,1.0,1.0,0.0,0.0,1.0,0.0,0.0,1.0,1.0,0.0,0.0,1.0,1.0,0.0,0.0,1.0,1.0,0.0,0.0,1.0,1.0,0.0,0.0,1.0,1.0,0.0,0.0,0.8933333333333334,1.0,0.2712931993250107,0.027265992434429,-0.3333333333333333,0.0,0.0,0.0,0.0,0.0,0.4330127018922193,0.0435194139889244,0.22666666666666666
40,40,barense,familiar_low_screen06,1.0,0.0,0.0,2024.611111111111,190.52622585312469,808.334317767745,16,familiar_lowsim,"['familiar_low_screen06_image0_typical.png', 'familiar_low_screen06_image1_oddity.png', 'familiar_low_screen06_image2_typical.png', 'familiar_low_screen06_image3_typical.png']",1,,1.0,1.0,1.0,0.0,0.0,1.0,1.0,0.0,0.0,1.0,0.0,0.0,1.0,1.0,0.0,0.0,1.0,1.0,0.0,0.0,1.0,1.0,0.0,0.0,1.0,1.0,0.0,0.0,1.0,1.0,0.0,0.0,-0.3333333333333333,0.0,0.0,0.0,1.0,1.0,0.0,0.0,-0.08,0.0,0.3923009049186606,0.0394277244403662,0.9866666666666667
41,41,barense,familiar_low_screen07,0.9499999999999998,0.0333333333333333,0.1825741858350553,2519.7,255.6703253945524,1400.3640450328226,23,familiar_lowsim,"['familiar_low_screen07_image0_typical.png', 'familiar_low_screen07_image1_typical.png', 'familiar_low_screen07_image2_oddity.png', 'familiar_low_screen07_image3_typical.png']",2,,-0.3333333333333333,-0.3333333333333333,0.0,0.0,0.0,-0.3333333333333333,0.0,0.0,0.0,0.0,0.0,0.0,-0.3333333333333333,0.0,0.0,0.0,-0.3333333333333333,0.0,0.0,0.0,-0.12,0.0,0.3666060555964671,0.036845294917747,-0.3333333333333333,0.0,0.0,0.0,-0.3333333333333333,0.0,0.0,0.0,-0.29333333333333333,0.0,0.1705872210923198,0.0171446607997765,-0.3333333333333333,0.0,0.0,0.0,1.0,1.0,0.0,0.0,-0.3333333333333333
42,42,barense,familiar_low_screen08,1.0,0.0,0.0,1859.217391304348,156.43041308022413,750.2139062549692,20,familiar_lowsim,"['familiar_low_screen08_image0_typical.png', 'familiar_low_screen08_image1_typical.png', 'familiar_low_screen08_image2_typical.png', 'familiar_low_screen08_image3_oddity.png']",3,,1.0,1.0,1.0,0.0,0.0,1.0,1.0,0.0,0.0,1.0,0.0,0.0,1.0,1.0,0.0,0.0,1.0,1.0,0.0,0.0,1.0,1.0,0.0,0.0,1.0,1.0,0.0,0.0,1.0,1.0,0.0,0.0,0.9733333333333333,1.0,0.1399999999999999,0.0140705294136289,1.0,1.0,0.0,0.0,1.0,1.0,0.0,0.0,1.0
43,43,barense,familiar_low_screen10,1.0,0.0,0.0,2373.277777777778,168.75243509364932,715.9559471787728,15,familiar_lowsim,"['familiar_low_screen10_image0_typical.png', 'familiar_low_screen10_image1_oddity.png', 'familiar_low_screen10_image2_typical.png', 'familiar_low_screen10_image3_typical.png']",1,,1.0,1.0,1.0,0.0,0.0,1.0,1.0,0.0,0.0,1.0,0.0,0.0,1.0,1.0,0.0,0.0,1.0,1.0,0.0,0.0,1.0,1.0,0.0,0.0,1.0,1.0,0.0,0.0,1.0,1.0,0.0,0.0,1.0,1.0,0.0,0.0,0.9733333333333333,1.0,0.1399999999999999,0.0140705294136289,1.0,1.0,0.0,0.0,1.0
44,44,barense,familiar_low_screen12,1.0,0.0,0.0,2082.68,209.58331453942924,1047.9165726971462,22,familiar_lowsim,"['familiar_low_screen12_image0_typical.png', 'familiar_low_screen12_image1_typical.png', 'familiar_low_screen12_image2_typical.png', 'familiar_low_screen12_image3_oddity.png']",3,,1.0,1.0,1.0,0.0,0.0,1.0,1.0,0.0,0.0,1.0,0.0,0.0,1.0,1.0,0.0,0.0,1.0,1.0,0.0,0.0,1.0,1.0,0.0,0.0,1.0,1.0,0.0,0.0,1.0,1.0,0.0,0.0,0.37333333333333335,1.0,0.4990991885387111,0.0501613558046591,1.0,1.0,0.0,0.0,1.0,1.0,0.0,0.0,0.648888888888889
45,45,barense,familiar_low_screen13,0.953125,0.0312499999999999,0.1767766952966368,2125.21875,137.16344246313116,775.9136023725671,25,familiar_lowsim,"['familiar_low_screen13_image0_typical.png', 'familiar_low_screen13_image1_typical.png', 'familiar_low_screen13_image2_oddity.png', 'familiar_low_screen13_image3_typical.png']",2,,1.0,1.0,1.0,0.0,0.0,1.0,1.0,0.0,0.0,1.0,0.0,0.0,1.0,1.0,0.0,0.0,1.0,1.0,0.0,0.0,1.0,1.0,0.0,0.0,1.0,1.0,0.0,0.0,1.0,1.0,0.0,0.0,0.9466666666666667,1.0,0.1959591794226542,0.0196946385566932,-0.12,0.0,0.3666060555964672,0.036845294917747,-0.26666666666666666,0.0,0.2179449471770336,0.021904291355759,1.0
46,46,barense,familiar_low_screen16,0.9347826086956522,0.0434782608695652,0.2085144140570747,2059.826086956521,120.648439923703,578.6095914245957,19,familiar_lowsim,"['familiar_low_screen16_image0_typical.png', 'familiar_low_screen16_image1_typical.png', 'familiar_low_screen16_image2_oddity.png', 'familiar_low_screen16_image3_typical.png']",2,,1.0,1.0,1.0,0.0,0.0,1.0,1.0,0.0,0.0,1.0,0.0,0.0,1.0,1.0,0.0,0.0,1.0,1.0,0.0,0.0,1.0,1.0,0.0,0.0,1.0,1.0,0.0,0.0,1.0,1.0,0.0,0.0,-0.3333333333333333,0.0,0.0,0.0,-0.32,0.0,0.0994987437106619,0.0099999999999999,1.0,1.0,0.0,0.0,1.0
47,47,barense,familiar_low_screen17,1.0,0.0,0.0,2337.0,184.3150735718895,1074.7323274925602,27,familiar_lowsim,"['familiar_low_screen17_image0_typical.png', 'familiar_low_screen17_image1_typical.png', 'familiar_low_screen17_image2_oddity.png', 'familiar_low_screen17_image3_typical.png']",2,,1.0,1.0,1.0,0.0,0.0,1.0,1.0,0.0,0.0,1.0,0.0,0.0,1.0,1.0,0.0,0.0,1.0,1.0,0.0,0.0,1.0,1.0,0.0,0.0,1.0,1.0,0.0,0.0,1.0,1.0,0.0,0.0,0.6933333333333334,1.0,0.4208325082500163,0.042295258468165,1.0,1.0,0.0,0.0,1.0,1.0,0.0,0.0,0.9955555555555557
48,48,barense,familiar_low_screen18,1.0,0.0,0.0,1927.793103448276,132.52899468342346,713.6904780940878,19,familiar_lowsim,"['familiar_low_screen18_image0_typical.png', 'familiar_low_screen18_image1_typical.png', 'familiar_low_screen18_image2_typical.png', 'familiar_low_screen18_image3_oddity.png']",3,,-0.3333333333333333,1.0,1.0,0.0,0.0,0.8133333333333334,1.0,0.3469870314579494,0.0348735088019777,0.0,0.0,0.0,1.0,1.0,0.0,0.0,1.0,1.0,0.0,0.0,0.3333333333333333,0.5,0.5,0.0502518907629606,-0.053333333333333344,0.0,0.4073082370883261,0.0409360180740332,1.0,1.0,0.0,0.0,1.0,1.0,0.0,0.0,1.0,1.0,0.0,0.0,1.0,1.0,0.0,0.0,1.0
49,49,barense,familiar_low_screen19,1.0,0.0,0.0,2042.1818181818185,144.46653732382487,829.8970739851363,27,familiar_lowsim,"['familiar_low_screen19_image0_oddity.png', 'familiar_low_screen19_image1_typical.png', 'familiar_low_screen19_image2_typical.png', 'familiar_low_screen19_image3_typical.png']",0,,1.0,1.0,1.0,0.0,0.0,1.0,1.0,0.0,0.0,1.0,0.0,0.0,1.0,1.0,0.0,0.0,1.0,1.0,0.0,0.0,1.0,1.0,0.0,0.0,1.0,1.0,0.0,0.0,1.0,1.0,0.0,0.0,-0.3333333333333333,0.0,0.0,0.0,1.0,1.0,0.0,0.0,0.05333333333333331,0.0,0.4537620521815371,0.0456048021572068,0.9822222222222224
50,50,barense,familiar_low_screen20,1.0,0.0,0.0,2204.775,154.39284512243438,976.4660900410216,31,familiar_lowsim,"['familiar_low_screen20_image0_typical.png', 'familiar_low_screen20_image1_oddity.png', 'familiar_low_screen20_image2_typical.png', 'familiar_low_screen20_image3_typical.png']",1,,1.0,1.0,1.0,0.0,0.0,1.0,1.0,0.0,0.0,1.0,0.0,0.0,1.0,1.0,0.0,0.0,1.0,1.0,0.0,0.0,1.0,1.0,0.0,0.0,1.0,1.0,0.0,0.0,1.0,1.0,0.0,0.0,-0.3066666666666667,0.0,0.1399999999999999,0.0140705294136289,1.0,1.0,0.0,0.0,1.0,1.0,0.0,0.0,0.9955555555555557
51,51,barense,familiar_low_screen21,1.0,0.0,0.0,2384.8888888888887,387.2624254105383,2012.2745900202149,21,familiar_lowsim,"['familiar_low_screen21_image0_typical.png', 'familiar_low_screen21_image1_typical.png', 'familiar_low_screen21_image2_oddity.png', 'familiar_low_screen21_image3_typical.png']",2,,1.0,1.0,1.0,0.0,0.0,1.0,1.0,0.0,0.0,1.0,0.0,0.0,1.0,1.0,0.0,0.0,1.0,1.0,0.0,0.0,1.0,1.0,0.0,0.0,1.0,1.0,0.0,0.0,1.0,1.0,0.0,0.0,1.0,1.0,0.0,0.0,1.0,1.0,0.0,0.0,1.0,1.0,0.0,0.0,0.8088888888888889
52,52,barense,familiar_low_screen22,0.9558823529411764,0.0294117647058823,0.1714985851425088,2372.5882352941176,196.7280038990063,1147.1115271040444,27,familiar_lowsim,"['familiar_low_screen22_image0_oddity.png', 'familiar_low_screen22_image1_typical.png', 'familiar_low_screen22_image2_typical.png', 'familiar_low_screen22_image3_typical.png']",0,,1.0,1.0,1.0,0.0,0.0,1.0,1.0,0.0,0.0,1.0,0.0,0.0,1.0,1.0,0.0,0.0,1.0,1.0,0.0,0.0,1.0,1.0,0.0,0.0,1.0,1.0,0.0,0.0,1.0,1.0,0.0,0.0,1.0,1.0,0.0,0.0,1.0,1.0,0.0,0.0,1.0,1.0,0.0,0.0,1.0
53,53,barense,familiar_low_screen23,1.0,0.0,0.0,2047.2142857142856,180.572541499986,955.5000768317065,24,familiar_lowsim,"['familiar_low_screen23_image0_typical.png', 'familiar_low_screen23_image1_oddity.png', 'familiar_low_screen23_image2_typical.png', 'familiar_low_screen23_image3_typical.png']",1,,1.0,1.0,1.0,0.0,0.0,1.0,1.0,0.0,0.0,1.0,0.0,0.0,1.0,1.0,0.0,0.0,1.0,1.0,0.0,0.0,1.0,1.0,0.0,0.0,1.0,1.0,0.0,0.0,1.0,1.0,0.0,0.0,1.0,1.0,0.0,0.0,1.0,1.0,0.0,0.0,1.0,1.0,0.0,0.0,1.0
54,54,barense,familiar_low_screen24,1.0,0.0,0.0,1955.032258064516,166.071072256979,924.644597809377,27,familiar_lowsim,"['familiar_low_screen24_image0_typical.png', 'familiar_low_screen24_image1_typical.png', 'familiar_low_screen24_image2_oddity.png', 'familiar_low_screen24_image3_typical.png']",2,,1.0,1.0,1.0,0.0,0.0,1.0,1.0,0.0,0.0,1.0,0.0,0.0,1.0,1.0,0.0,0.0,1.0,1.0,0.0,0.0,1.0,1.0,0.0,0.0,1.0,1.0,0.0,0.0,1.0,1.0,0.0,0.0,0.9866666666666667,1.0,0.0994987437106619,0.0099999999999999,1.0,1.0,0.0,0.0,1.0,1.0,0.0,0.0,0.928888888888889
55,55,barense,familiar_low_screen25,1.0,0.0,0.0,1976.4137931034484,134.94272199643208,726.6887974741211,26,familiar_lowsim,"['familiar_low_screen25_image0_typical.png', 'familiar_low_screen25_image1_typical.png', 'familiar_low_screen25_image2_typical.png', 'familiar_low_screen25_image3_oddity.png']",3,,1.0,1.0,1.0,0.0,0.0,1.0,1.0,0.0,0.0,1.0,0.0,0.0,1.0,1.0,0.0,0.0,1.0,1.0,0.0,0.0,1.0,1.0,0.0,0.0,1.0,1.0,0.0,0.0,1.0,1.0,0.0,0.0,1.0,1.0,0.0,0.0,1.0,1.0,0.0,0.0,1.0,1.0,0.0,0.0,0.9911111111111109
56,56,barense,familiar_low_screen26,1.0,0.0,0.0,2039.675675675676,121.77993033547683,740.758397186966,30,familiar_lowsim,"['familiar_low_screen26_image0_oddity.png', 'familiar_low_screen26_image1_typical.png', 'familiar_low_screen26_image2_typical.png', 'familiar_low_screen26_image3_typical.png']",0,,1.0,1.0,1.0,0.0,0.0,1.0,1.0,0.0,0.0,1.0,0.0,0.0,0.88,1.0,0.2861817604250837,0.0287623491264661,1.0,1.0,0.0,0.0,0.7066666666666667,1.0,0.4142463035441596,0.0416333199893226,1.0,1.0,0.0,0.0,1.0,1.0,0.0,0.0,-0.08,0.0,0.3923009049186606,0.0394277244403662,-0.25333333333333335,0.0,0.2374868417407583,0.0238683256575942,0.9866666666666667,1.0,0.0994987437106619,0.0099999999999999,0.9955555555555557
57,57,barense,familiar_low_screen27,1.0,0.0,0.0,1845.8709677419356,180.26634859082785,1003.6805515015052,21,familiar_lowsim,"['familiar_low_screen27_image0_typical.png', 'familiar_low_screen27_image1_oddity.png', 'familiar_low_screen27_image2_typical.png', 'familiar_low_screen27_image3_typical.png']",1,,1.0,1.0,1.0,0.0,0.0,1.0,1.0,0.0,0.0,1.0,0.0,0.0,1.0,1.0,0.0,0.0,1.0,1.0,0.0,0.0,1.0,1.0,0.0,0.0,1.0,1.0,0.0,0.0,1.0,1.0,0.0,0.0,0.4666666666666666,1.0,0.4898979485566356,0.0492365963917331,1.0,1.0,0.0,0.0,1.0,1.0,0.0,0.0,1.0
58,58,barense,familiar_low_screen28,1.0,0.0,0.0,2201.0,208.62142471609843,1142.666602958729,21,familiar_lowsim,"['familiar_low_screen28_image0_oddity.png', 'familiar_low_screen28_image1_typical.png', 'familiar_low_screen28_image2_typical.png', 'familiar_low_screen28_image3_typical.png']",0,,1.0,1.0,1.0,0.0,0.0,1.0,1.0,0.0,0.0,1.0,0.0,0.0,1.0,1.0,0.0,0.0,1.0,1.0,0.0,0.0,1.0,1.0,0.0,0.0,1.0,1.0,0.0,0.0,1.0,1.0,0.0,0.0,-0.19999999999999998,0.0,0.3,0.0301511344577763,1.0,1.0,0.0,0.0,1.0,1.0,0.0,0.0,0.9911111111111109
59,59,barense,familiar_low_screen30,1.0,0.0,0.0,2109.766666666667,146.04521173161342,799.922568810228,25,familiar_lowsim,"['familiar_low_screen30_image0_typical.png', 'familiar_low_screen30_image1_oddity.png', 'familiar_low_screen30_image2_typical.png', 'familiar_low_screen30_image3_typical.png']",1,,-0.3333333333333333,-0.3333333333333333,0.0,0.0,0.0,-0.3333333333333333,0.0,0.0,0.0,0.0,0.0,0.0,1.0,1.0,0.0,0.0,1.0,1.0,0.0,0.0,1.0,1.0,0.0,0.0,1.0,1.0,0.0,0.0,1.0,1.0,0.0,0.0,0.7733333333333333,1.0,0.375632799419859,0.0377525168068636,1.0,1.0,0.0,0.0,1.0,1.0,0.0,0.0,0.9511111111111111
60,60,barense,familiar_low_screen31,1.0,0.0,0.0,2008.6129032258063,127.72703318093204,711.1540235148011,23,familiar_lowsim,"['familiar_low_screen31_image0_typical.png', 'familiar_low_screen31_image1_typical.png', 'familiar_low_screen31_image2_oddity.png', 'familiar_low_screen31_image3_typical.png']",2,,1.0,1.0,1.0,0.0,0.0,1.0,1.0,0.0,0.0,1.0,0.0,0.0,1.0,1.0,0.0,0.0,1.0,1.0,0.0,0.0,1.0,1.0,0.0,0.0,1.0,1.0,0.0,0.0,1.0,1.0,0.0,0.0,-0.3333333333333333,0.0,0.0,0.0,-0.3333333333333333,0.0,0.0,0.0,-0.3333333333333333,0.0,0.0,0.0,1.0
61,61,barense,familiar_low_screen32,1.0,0.0,0.0,1996.32,246.8847012946192,1234.423506473096,21,familiar_lowsim,"['familiar_low_screen32_image0_typical.png', 'familiar_low_screen32_image1_typical.png', 'familiar_low_screen32_image2_typical.png', 'familiar_low_screen32_image3_oddity.png']",3,,-0.26666666666666666,-0.08,0.0,0.3923009049186606,0.0394277244403662,0.9066666666666667,1.0,0.2551470164434615,0.0256432399976242,0.0,0.2179449471770336,0.021904291355759,-0.3333333333333333,0.0,0.0,0.0,1.0,1.0,0.0,0.0,1.0,1.0,0.0,0.0,1.0,1.0,0.0,0.0,1.0,1.0,0.0,0.0,0.12000000000000004,0.0,0.4737087712930805,0.0476095228569523,0.96,1.0,0.1705872210923198,0.0171446607997765,1.0,1.0,0.0,0.0,0.7511111111111112
62,62,barense,familiar_low_screen33,1.0,0.0,0.0,2491.7555555555555,163.2158518604763,1094.885219296682,34,familiar_lowsim,"['familiar_low_screen33_image0_typical.png', 'familiar_low_screen33_image1_typical.png', 'familiar_low_screen33_image2_typical.png', 'familiar_low_screen33_image3_oddity.png']",3,,1.0,1.0,1.0,0.0,0.0,1.0,1.0,0.0,0.0,1.0,0.0,0.0,1.0,1.0,0.0,0.0,1.0,1.0,0.0,0.0,1.0,1.0,0.0,0.0,1.0,1.0,0.0,0.0,1.0,1.0,0.0,0.0,0.6266666666666666,1.0,0.4489988864128728,0.0451260859854212,1.0,1.0,0.0,0.0,1.0,1.0,0.0,0.0,1.0
63,63,barense,familiar_low_screen34,1.0,0.0,0.0,2122.3793103448274,144.62465785469962,778.827617722997,23,familiar_lowsim,"['familiar_low_screen34_image0_typical.png', 'familiar_low_screen34_image1_oddity.png', 'familiar_low_screen34_image2_typical.png', 'familiar_low_screen34_image3_typical.png']",1,,1.0,-0.3333333333333333,0.0,0.0,0.0,-0.29333333333333333,0.0,0.1705872210923198,0.0171446607997765,1.0,0.0,0.0,0.0,0.0,0.4330127018922193,0.0435194139889244,0.96,1.0,0.1705872210923198,0.0171446607997765,1.0,1.0,0.0,0.0,1.0,1.0,0.0,0.0,1.0,1.0,0.0,0.0,-0.3333333333333333,0.0,0.0,0.0,-0.3333333333333333,0.0,0.0,0.0,-0.3333333333333333,0.0,0.0,0.0,0.008888888888888799
64,64,barense,familiar_low_screen35,1.0,0.0,0.0,2337.833333333333,128.54614081122898,771.2768448673739,28,familiar_lowsim,"['familiar_low_screen35_image0_typical.png', 'familiar_low_screen35_image1_typical.png', 'familiar_low_screen35_image2_typical.png', 'familiar_low_screen35_image3_oddity.png']",3,,1.0,1.0,1.0,0.0,0.0,1.0,1.0,0.0,0.0,1.0,0.0,0.0,1.0,1.0,0.0,0.0,1.0,1.0,0.0,0.0,1.0,1.0,0.0,0.0,1.0,1.0,0.0,0.0,1.0,1.0,0.0,0.0,1.0,1.0,0.0,0.0,1.0,1.0,0.0,0.0,1.0,1.0,0.0,0.0,0.12444444444444443
65,65,barense,familiar_low_screen36,1.0,0.0,0.0,2424.625,161.46820493431562,791.0294235444364,20,familiar_lowsim,"['familiar_low_screen36_image0_oddity.png', 'familiar_low_screen36_image1_typical.png', 'familiar_low_screen36_image2_typical.png', 'familiar_low_screen36_image3_typical.png']",0,,1.0,1.0,1.0,0.0,0.0,1.0,1.0,0.0,0.0,1.0,0.0,0.0,1.0,1.0,0.0,0.0,1.0,1.0,0.0,0.0,1.0,1.0,0.0,0.0,1.0,1.0,0.0,0.0,1.0,1.0,0.0,0.0,-0.16,0.0,0.3363034344160047,0.0337997668989631,1.0,1.0,0.0,0.0,1.0,1.0,0.0,0.0,0.9911111111111109
66,66,barense,familiar_low_screen37,1.0,0.0,0.0,2426.282608695652,158.96174505022896,1078.1310096240825,36,familiar_lowsim,"['familiar_low_screen37_image0_typical.png', 'familiar_low_screen37_image1_typical.png', 'familiar_low_screen37_image2_typical.png', 'familiar_low_screen37_image3_oddity.png']",3,,1.0,1.0,1.0,0.0,0.0,1.0,1.0,0.0,0.0,1.0,0.0,0.0,1.0,1.0,0.0,0.0,1.0,1.0,0.0,0.0,1.0,1.0,0.0,0.0,1.0,1.0,0.0,0.0,1.0,1.0,0.0,0.0,0.6133333333333333,1.0,0.4537620521815371,0.0456048021572068,1.0,1.0,0.0,0.0,-0.24,0.0,0.2551470164434614,0.0256432399976242,1.0
67,67,barense,familiar_low_screen38,1.0,0.0,0.0,2194.027027027027,134.26357636256904,816.6934514820687,29,familiar_lowsim,"['familiar_low_screen38_image0_typical.png', 'familiar_low_screen38_image1_oddity.png', 'familiar_low_screen38_image2_typical.png', 'familiar_low_screen38_image3_typical.png']",1,,1.0,-0.3333333333333333,0.0,0.0,0.0,1.0,1.0,0.0,0.0,1.0,0.0,0.0,0.3866666666666667,1.0,0.4983974317750844,0.0500908265962033,-0.27999999999999997,0.0,0.1959591794226542,0.0196946385566932,-0.3333333333333333,0.0,0.0,0.0,-0.3333333333333333,0.0,0.0,0.0,-0.3333333333333333,0.0,0.0,0.0,-0.3333333333333333,0.0,0.0,0.0,-0.27999999999999997,0.0,0.1959591794226542,0.0196946385566932,0.5333333333333333,1.0,0.4769696007084728,0.0479372485441102,0.8266666666666667
68,68,barense,familiar_low_screen39,1.0,0.0,0.0,2092.2258064516127,207.7087948587442,1156.4736258608875,22,familiar_lowsim,"['familiar_low_screen39_image0_oddity.png', 'familiar_low_screen39_image1_typical.png', 'familiar_low_screen39_image2_typical.png', 'familiar_low_screen39_image3_typical.png']",0,,1.0,1.0,1.0,0.0,0.0,1.0,1.0,0.0,0.0,1.0,0.0,0.0,1.0,1.0,0.0,0.0,1.0,1.0,0.0,0.0,1.0,1.0,0.0,0.0,1.0,1.0,0.0,0.0,1.0,1.0,0.0,0.0,0.6533333333333333,1.0,0.4386342439892262,0.0440844002276808,1.0,1.0,0.0,0.0,1.0,1.0,0.0,0.0,0.9555555555555557
69,69,barense,familiar_low_screen40,1.0,0.0,0.0,2262.294117647059,154.23589781124076,899.3421005956205,27,familiar_lowsim,"['familiar_low_screen40_image0_typical.png', 'familiar_low_screen40_image1_typical.png', 'familiar_low_screen40_image2_oddity.png', 'familiar_low_screen40_image3_typical.png']",2,,1.0,1.0,1.0,0.0,0.0,1.0,1.0,0.0,0.0,1.0,0.0,0.0,1.0,1.0,0.0,0.0,1.0,1.0,0.0,0.0,1.0,1.0,0.0,0.0,1.0,1.0,0.0,0.0,1.0,1.0,0.0,0.0,0.96,1.0,0.1705872210923198,0.0171446607997765,1.0,1.0,0.0,0.0,1.0,1.0,0.0,0.0,0.9777777777777775
70,70,barense,novel_high_screen01,0.3382352941176471,0.0864343843595968,0.5039947372613783,7203.588235294118,621.7824990666257,3625.583841114188,28,abstract_hisim,"['novel_high_screen01_image0_typical.png', 'novel_high_screen01_image1_oddity.png', 'novel_high_screen01_image2_typical.png', 'novel_high_screen01_image3_typical.png']",1,,-0.16,-0.08,0.0,0.3923009049186606,0.0394277244403662,-0.16,0.0,0.3363034344160047,0.0337997668989631,0.0,0.3363034344160047,0.0337997668989631,-0.13333333333333333,0.0,0.3570714214271425,0.0358870281282636,-0.27999999999999997,0.0,0.1959591794226542,0.0196946385566932,-0.24,0.0,0.2551470164434614,0.0256432399976242,-0.026666666666666655,0.0,0.4208325082500163,0.042295258468165,-0.24,0.0,0.2551470164434614,0.0256432399976242,0.08,0.0,0.462493243193887,0.0464823198711731,-0.06666666666666665,0.0,0.4,0.0402015126103684,0.20000000000000004,0.0,0.4898979485566356,0.0492365963917331,0.03111111111111109
71,71,barense,novel_high_screen02,0.34375,0.0890983056209046,0.5040161287741853,5331.90625,416.5427222197307,2356.321468283808,25,abstract_hisim,"['novel_high_screen02_image0_typical.png', 'novel_high_screen02_image1_oddity.png', 'novel_high_screen02_image2_typical.png', 'novel_high_screen02_image3_typical.png']",1,,0.040000000000000036,0.040000000000000036,0.0,0.4489988864128729,0.0451260859854212,0.1333333333333333,0.0,0.4769696007084728,0.0479372485441102,0.0,0.4489988864128729,0.0451260859854212,-0.21333333333333335,0.0,0.2861817604250837,0.0287623491264661,-0.19999999999999998,0.0,0.3,0.0301511344577763,0.68,1.0,0.4270831300812525,0.0429234695990927,0.05333333333333331,0.0,0.4537620521815371,0.0456048021572068,0.3866666666666667,1.0,0.4983974317750844,0.0500908265962033,-0.25333333333333335,0.0,0.2374868417407583,0.0238683256575942,-0.14666666666666664,0.0,0.3469870314579494,0.0348735088019777,-0.09333333333333334,0.0,0.3841874542459709,0.0386122919665369,-0.06666666666666665
72,72,barense,novel_high_screen03,0.3571428571428571,0.0952380952380952,0.5039526306789697,6079.214285714285,774.8317300804939,4100.024131429824,21,abstract_hisim,"['novel_high_screen03_image0_typical.png', 'novel_high_screen03_image1_typical.png', 'novel_high_screen03_image2_oddity.png', 'novel_high_screen03_image3_typical.png']",2,,-0.3333333333333333,-0.3066666666666667,0.0,0.1399999999999999,0.0140705294136289,-0.3333333333333333,0.0,0.0,0.0,0.0,0.0,0.0,-0.3333333333333333,0.0,0.0,0.0,-0.16,0.0,0.3363034344160047,0.0337997668989631,-0.026666666666666655,0.0,0.4208325082500163,0.042295258468165,-0.18666666666666668,0.0,0.3128897569432403,0.031446603773522,-0.3333333333333333,0.0,0.0,0.0,-0.27999999999999997,0.0,0.1959591794226542,0.0196946385566932,-0.013333333333333345,0.0,0.4270831300812525,0.0429234695990927,-0.053333333333333344,0.0,0.407308237088326,0.0409360180740332,0.07111111111111106
73,73,barense,novel_high_screen05,0.4545454545454545,0.1049727762162956,0.492365963917331,6362.090909090909,609.6640971016465,2859.5780892440844,21,abstract_hisim,"['novel_high_screen05_image0_oddity.png', 'novel_high_screen05_image1_typical.png', 'novel_high_screen05_image2_typical.png', 'novel_high_screen05_image3_typical.png']",0,,-0.013333333333333345,0.1333333333333333,0.0,0.4769696007084728,0.0479372485441102,-0.06666666666666665,0.0,0.4,0.0402015126103684,0.0,0.4270831300812525,0.0429234695990927,0.05333333333333331,0.0,0.4537620521815371,0.0456048021572068,0.2133333333333333,0.0,0.4918333050943174,0.049431107042371,0.52,1.0,0.48,0.0482418151324421,-0.013333333333333345,0.0,0.4270831300812525,0.0429234695990927,0.43999999999999995,1.0,0.4935585071701227,0.0496044963748858,-0.24,0.0,0.2551470164434614,0.0256432399976242,-0.053333333333333344,0.0,0.407308237088326,0.0409360180740332,0.1333333333333333,0.0,0.4769696007084728,0.0479372485441102,-0.18666666666666668
74,74,barense,novel_high_screen06,0.625,0.0902893898143268,0.4423258684646913,8294.583333333334,772.4007321348261,3783.975341364947,22,abstract_hisim,"['novel_high_screen06_image0_typical.png', 'novel_high_screen06_image1_typical.png', 'novel_high_screen06_image2_typical.png', 'novel_high_screen06_image3_oddity.png']",3,,0.17333333333333334,0.30666666666666664,0.0,0.4995998398718718,0.0502116731568678,0.25333333333333335,0.0,0.4963869458396343,0.0498887651569858,0.0,0.4853864439804639,0.0487831731214563,0.18666666666666668,0.0,0.4877499359302879,0.0490207130000197,0.30666666666666664,0.0,0.4995998398718718,0.0502116731568678,-0.24,0.0,0.2551470164434614,0.0256432399976242,0.0,0.0,0.4330127018922193,0.0435194139889244,0.02666666666666669,0.0,0.4439594576084623,0.0446196043338473,-0.17333333333333334,0.0,0.3249615361854384,0.032659863237109,-0.09333333333333334,0.0,0.3841874542459709,0.0386122919665369,0.09333333333333334,0.0,0.4664761515876239,0.046882617226215,0.12000000000000004
75,75,barense,novel_high_screen07,0.8064516129032256,0.061205374067775,0.3407771005482389,6907.451612903225,539.2779657878874,3002.572639573267,27,abstract_hisim,"['novel_high_screen07_image0_typical.png', 'novel_high_screen07_image1_typical.png', 'novel_high_screen07_image2_typical.png', 'novel_high_screen07_image3_oddity.png']",3,,-0.09333333333333334,-0.12,0.0,0.3666060555964672,0.036845294917747,0.02666666666666669,0.0,0.4439594576084623,0.0446196043338473,0.0,0.3841874542459709,0.0386122919665369,-0.16,0.0,0.3363034344160047,0.0337997668989631,-0.013333333333333345,0.0,0.4270831300812525,0.0429234695990927,0.040000000000000036,0.0,0.4489988864128728,0.0451260859854212,-0.08,0.0,0.3923009049186606,0.0394277244403662,-0.21333333333333335,0.0,0.2861817604250837,0.0287623491264661,0.2933333333333333,0.0,0.4990991885387111,0.0501613558046591,0.30666666666666664,0.0,0.4995998398718718,0.0502116731568678,-0.10666666666666665,0.0,0.375632799419859,0.0377525168068636,0.03111111111111109
76,76,barense,novel_high_screen08,0.0689655172413793,0.0916970959063363,0.4938039737912399,7190.206896551724,650.2361685002517,3501.6289309335366,24,abstract_hisim,"['novel_high_screen08_image0_oddity.png', 'novel_high_screen08_image1_typical.png', 'novel_high_screen08_image2_typical.png', 'novel_high_screen08_image3_typical.png']",0,,0.32,0.16,0.0,0.4828043081829324,0.0485236587093909,0.32,0.0,0.4998999899979994,0.0502418393795691,0.0,0.4998999899979995,0.0502418393795691,0.3466666666666667,1.0,0.4998999899979995,0.0502418393795691,0.0,0.0,0.4330127018922193,0.0435194139889244,-0.17333333333333334,0.0,0.3249615361854384,0.032659863237109,0.06666666666666665,0.0,0.4582575694955839,0.0460566186471838,0.20000000000000004,0.0,0.4898979485566356,0.0492365963917331,0.5333333333333333,1.0,0.4769696007084728,0.0479372485441102,-0.10666666666666665,0.0,0.375632799419859,0.0377525168068636,0.4000000000000001,1.0,0.4974937185533099,0.0499999999999999,0.1377777777777777
77,77,barense,novel_high_screen09,0.1874999999999999,0.1038945721662294,0.5089773777040515,8344.958333333334,975.673118592906,4779.802592605197,20,abstract_hisim,"['novel_high_screen09_image0_oddity.png', 'novel_high_screen09_image1_typical.png', 'novel_high_screen09_image2_typical.png', 'novel_high_screen09_image3_typical.png']",0,,0.3333333333333333,0.25333333333333335,0.0,0.4963869458396343,0.0498887651569858,0.4133333333333334,1.0,0.4963869458396343,0.0498887651569858,0.5,0.5,0.0502518907629606,0.5733333333333334,1.0,0.466476151587624,0.046882617226215,0.43999999999999995,1.0,0.4935585071701227,0.0496044963748858,-0.25333333333333335,0.0,0.2374868417407583,0.0238683256575942,0.18666666666666668,0.0,0.4877499359302879,0.0490207130000197,-0.08,0.0,0.3923009049186606,0.0394277244403662,0.64,1.0,0.4439594576084623,0.0446196043338473,0.3866666666666667,1.0,0.4983974317750844,0.0500908265962033,0.4266666666666666,1.0,0.4950757517794625,0.0497569851956243,0.040000000000000036
78,78,barense,novel_high_screen10,0.5909090909090909,0.0679170334216025,0.4505106334669667,6286.568181818182,461.0477512814229,3058.244802875155,33,abstract_hisim,"['novel_high_screen10_image0_typical.png', 'novel_high_screen10_image1_oddity.png', 'novel_high_screen10_image2_typical.png', 'novel_high_screen10_image3_typical.png']",1,,-0.10666666666666665,-0.25333333333333335,0.0,0.2374868417407583,0.0238683256575942,0.06666666666666665,0.0,0.4582575694955839,0.0460566186471838,0.0,0.375632799419859,0.0377525168068636,0.24,0.0,0.4950757517794625,0.0497569851956243,0.14666666666666664,0.0,0.48,0.0482418151324421,-0.26666666666666666,0.0,0.2179449471770337,0.021904291355759,-0.16,0.0,0.3363034344160047,0.0337997668989631,-0.18666666666666668,0.0,0.3128897569432403,0.031446603773522,0.7066666666666667,1.0,0.4142463035441596,0.0416333199893226,-0.26666666666666666,0.0,0.2179449471770336,0.021904291355759,-0.053333333333333344,0.0,0.407308237088326,0.0409360180740332,-0.11555555555555559
79,79,barense,novel_high_screen11,0.1428571428571428,0.0952380952380952,0.5039526306789697,6869.285714285715,754.6039271854197,3992.988659370626,22,abstract_hisim,"['novel_high_screen11_image0_typical.png', 'novel_high_screen11_image1_typical.png', 'novel_high_screen11_image2_typical.png', 'novel_high_screen11_image3_oddity.png']",3,,0.28,0.26666666666666666,0.0,0.49749371855331,0.05,0.43999999999999995,1.0,0.4935585071701227,0.0496044963748858,0.0,0.4983974317750844,0.0500908265962033,0.52,1.0,0.48,0.0482418151324421,0.2133333333333333,0.0,0.4918333050943174,0.049431107042371,-0.29333333333333333,0.0,0.1705872210923198,0.0171446607997765,0.2133333333333333,0.0,0.4918333050943175,0.049431107042371,-0.27999999999999997,0.0,0.1959591794226542,0.0196946385566932,0.64,1.0,0.4439594576084623,0.0446196043338473,0.3466666666666667,1.0,0.4998999899979995,0.0502418393795691,0.4000000000000001,1.0,0.49749371855331,0.05,-0.11555555555555559
80,80,barense,novel_high_screen12,0.6785714285714285,0.1138039295450987,0.42581531362632,6829.857142857143,752.4757004374444,2815.506262909659,13,abstract_hisim,"['novel_high_screen12_image0_typical.png', 'novel_high_screen12_image1_typical.png', 'novel_high_screen12_image2_typical.png', 'novel_high_screen12_image3_oddity.png']",3,,0.3866666666666667,0.4666666666666666,1.0,0.4898979485566356,0.0492365963917331,0.37333333333333335,1.0,0.4990991885387111,0.0501613558046591,1.0,0.4983974317750844,0.0500908265962033,0.5866666666666666,1.0,0.462493243193887,0.0464823198711731,0.05333333333333331,0.0,0.453762052181537,0.0456048021572068,-0.19999999999999998,0.0,0.3,0.0301511344577763,0.3466666666666667,1.0,0.4998999899979994,0.0502418393795691,0.32,0.0,0.4998999899979995,0.0502418393795691,0.8266666666666667,1.0,0.3363034344160047,0.0337997668989631,0.36000000000000004,1.0,0.4995998398718718,0.0502116731568678,0.5333333333333333,1.0,0.4769696007084728,0.0479372485441102,-0.008888888888888946
81,81,barense,novel_high_screen13,0.1136363636363636,0.0749783747412487,0.4973502728147656,6324.454545454545,578.9133706828106,3840.076873349629,29,abstract_hisim,"['novel_high_screen13_image0_typical.png', 'novel_high_screen13_image1_typical.png', 'novel_high_screen13_image2_oddity.png', 'novel_high_screen13_image3_typical.png']",2,,-0.25333333333333335,0.040000000000000036,0.0,0.4489988864128729,0.0451260859854212,-0.06666666666666665,0.0,0.4,0.0402015126103684,0.0,0.2374868417407583,0.0238683256575942,0.22666666666666666,0.0,0.4935585071701227,0.0496044963748858,0.09333333333333334,0.0,0.4664761515876239,0.046882617226215,-0.21333333333333335,0.0,0.2861817604250837,0.0287623491264661,-0.3066666666666667,0.0,0.1399999999999999,0.0140705294136289,-0.26666666666666666,0.0,0.2179449471770336,0.021904291355759,-0.3066666666666667,0.0,0.1399999999999999,0.0140705294136289,-0.16,0.0,0.3363034344160047,0.0337997668989631,-0.3066666666666667,0.0,0.1399999999999999,0.0140705294136289,0.09777777777777774
82,82,barense,novel_high_screen14,0.3709677419354839,0.0900918712501222,0.501610310127101,7689.870967741936,703.4603514852058,3916.7014756632097,26,abstract_hisim,"['novel_high_screen14_image0_typical.png', 'novel_high_screen14_image1_typical.png', 'novel_high_screen14_image2_typical.png', 'novel_high_screen14_image3_oddity.png']",3,,0.09333333333333334,0.28,0.0,0.4983974317750844,0.0500908265962033,0.25333333333333335,0.0,0.4963869458396343,0.0498887651569858,0.0,0.4664761515876239,0.046882617226215,-0.22666666666666666,0.0,0.2712931993250107,0.027265992434429,0.09333333333333334,0.0,0.4664761515876239,0.046882617226215,0.08,0.0,0.462493243193887,0.0464823198711731,-0.09333333333333334,0.0,0.3841874542459709,0.0386122919665369,0.17333333333333334,0.0,0.485386443980464,0.0487831731214563,0.5866666666666666,1.0,0.462493243193887,0.0464823198711731,0.32,0.0,0.4998999899979994,0.0502418393795691,0.37333333333333335,1.0,0.4990991885387111,0.0501613558046591,0.004444444444444399
83,83,barense,novel_high_screen15,0.3571428571428571,0.1106566670344976,0.50709255283711,6887.238095238095,890.7890640827056,4082.1083143978663,19,abstract_hisim,"['novel_high_screen15_image0_typical.png', 'novel_high_screen15_image1_oddity.png', 'novel_high_screen15_image2_typical.png', 'novel_high_screen15_image3_typical.png']",1,,0.18666666666666668,0.10666666666666669,0.0,0.4702127178203498,0.047258156262526,0.26666666666666666,0.0,0.49749371855331,0.05,0.0,0.4877499359302879,0.0490207130000197,0.14666666666666664,0.0,0.48,0.0482418151324421,-0.27999999999999997,0.0,0.1959591794226542,0.0196946385566932,-0.27999999999999997,0.0,0.1959591794226542,0.0196946385566932,-0.14666666666666664,0.0,0.3469870314579494,0.0348735088019777,-0.21333333333333335,0.0,0.2861817604250837,0.0287623491264661,0.18666666666666668,0.0,0.4877499359302879,0.0490207130000197,-0.04,0.0,0.4142463035441596,0.0416333199893226,0.16,0.0,0.4828043081829324,0.0485236587093909,-0.0711111111111112
84,84,barense,novel_high_screen16,0.52,0.0952190457139046,0.4760952285695233,5558.24,478.3693979900192,2391.846989950096,20,abstract_hisim,"['novel_high_screen16_image0_oddity.png', 'novel_high_screen16_image1_typical.png', 'novel_high_screen16_image2_typical.png', 'novel_high_screen16_image3_typical.png']",0,,-0.09333333333333334,-0.16,0.0,0.3363034344160047,0.0337997668989631,-0.13333333333333333,0.0,0.3570714214271425,0.0358870281282636,0.0,0.3841874542459709,0.0386122919665369,-0.18666666666666668,0.0,0.3128897569432403,0.031446603773522,-0.08,0.0,0.3923009049186606,0.0394277244403662,0.20000000000000004,0.0,0.4898979485566356,0.0492365963917331,-0.16,0.0,0.3363034344160047,0.0337997668989631,0.4266666666666666,1.0,0.4950757517794625,0.0497569851956243,-0.27999999999999997,0.0,0.1959591794226542,0.0196946385566932,-0.06666666666666665,0.0,0.4,0.0402015126103684,-0.10666666666666665,0.0,0.375632799419859,0.0377525168068636,0.07555555555555545
85,85,barense,novel_high_screen17,0.6739130434782609,0.0879391124952054,0.4217411678366499,7606.347826086957,792.8655055655992,3802.4493853387767,21,abstract_hisim,"['novel_high_screen17_image0_oddity.png', 'novel_high_screen17_image1_typical.png', 'novel_high_screen17_image2_typical.png', 'novel_high_screen17_image3_typical.png']",0,,-0.12,-0.06666666666666665,0.0,0.4,0.0402015126103684,-0.09333333333333334,0.0,0.3841874542459709,0.0386122919665369,0.0,0.3666060555964671,0.036845294917747,-0.21333333333333335,0.0,0.2861817604250837,0.0287623491264661,-0.10666666666666665,0.0,0.375632799419859,0.0377525168068636,0.56,1.0,0.4702127178203498,0.047258156262526,0.0,0.0,0.4330127018922193,0.0435194139889244,0.4533333333333333,1.0,0.4918333050943175,0.049431107042371,-0.10666666666666665,0.0,0.375632799419859,0.0377525168068636,-0.12,0.0,0.3666060555964672,0.036845294917747,-0.17333333333333334,0.0,0.3249615361854384,0.032659863237109,-0.013333333333333345
86,86,barense,novel_high_screen18,0.5161290322580644,0.0853468164859545,0.4751909633114915,7443.387096774193,731.2571803561366,4071.467668850463,25,abstract_hisim,"['novel_high_screen18_image0_typical.png', 'novel_high_screen18_image1_typical.png', 'novel_high_screen18_image2_oddity.png', 'novel_high_screen18_image3_typical.png']",2,,-0.14666666666666664,-0.08,0.0,0.3923009049186606,0.0394277244403662,-0.26666666666666666,0.0,0.2179449471770336,0.021904291355759,0.0,0.3469870314579494,0.0348735088019777,-0.12,0.0,0.3666060555964672,0.036845294917747,-0.08,0.0,0.3923009049186606,0.0394277244403662,-0.17333333333333334,0.0,0.3249615361854384,0.032659863237109,-0.13333333333333333,0.0,0.3570714214271425,0.0358870281282636,-0.16,0.0,0.3363034344160047,0.0337997668989631,0.2133333333333333,0.0,0.4918333050943174,0.049431107042371,-0.3333333333333333,0.0,0.0,0.0,-0.22666666666666666,0.0,0.2712931993250107,0.027265992434429,0.2577777777777777
87,87,barense,novel_high_screen20,0.2,0.0926411111706201,0.507416263404925,8070.533333333334,502.63507873553647,2753.0457081683858,19,abstract_hisim,"['novel_high_screen20_image0_typical.png', 'novel_high_screen20_image1_oddity.png', 'novel_high_screen20_image2_typical.png', 'novel_high_screen20_image3_typical.png']",1,,0.013333333333333345,0.02666666666666669,0.0,0.4439594576084623,0.0446196043338473,0.02666666666666669,0.0,0.4439594576084623,0.0446196043338473,0.0,0.4386342439892261,0.0440844002276808,-0.16,0.0,0.3363034344160047,0.0337997668989631,-0.25333333333333335,0.0,0.2374868417407583,0.0238683256575942,0.6533333333333333,1.0,0.4386342439892262,0.0440844002276808,-0.053333333333333344,0.0,0.4073082370883261,0.0409360180740332,0.37333333333333335,1.0,0.4990991885387111,0.0501613558046591,-0.24,0.0,0.2551470164434614,0.0256432399976242,-0.24,0.0,0.2551470164434614,0.0256432399976242,-0.06666666666666665,0.0,0.4,0.0402015126103684,0.004444444444444399
88,88,barense,novel_high_screen21,0.5714285714285714,0.101015254455221,0.4629100498862757,6487.857142857143,719.7283028559964,3298.2094276397047,19,abstract_hisim,"['novel_high_screen21_image0_oddity.png', 'novel_high_screen21_image1_typical.png', 'novel_high_screen21_image2_typical.png', 'novel_high_screen21_image3_typical.png']",0,,0.20000000000000004,0.24,0.0,0.4950757517794625,0.0497569851956243,0.4133333333333334,1.0,0.4963869458396343,0.0498887651569858,0.0,0.4898979485566356,0.0492365963917331,0.4666666666666666,1.0,0.4898979485566356,0.0492365963917331,0.43999999999999995,1.0,0.4935585071701227,0.0496044963748858,-0.24,0.0,0.2551470164434614,0.0256432399976242,0.22666666666666666,0.0,0.4935585071701227,0.0496044963748858,-0.16,0.0,0.3363034344160047,0.0337997668989631,0.64,1.0,0.4439594576084623,0.0446196043338473,0.32,0.0,0.4998999899979995,0.0502418393795691,0.32,0.0,0.4998999899979995,0.0502418393795691,-0.022222222222222254
89,89,barense,novel_high_screen22,0.3035714285714285,0.095979258908316,0.50787450018337,5700.142857142857,603.1154318303147,3191.386888976684,21,abstract_hisim,"['novel_high_screen22_image0_typical.png', 'novel_high_screen22_image1_typical.png', 'novel_high_screen22_image2_typical.png', 'novel_high_screen22_image3_oddity.png']",3,,0.10666666666666669,-0.14666666666666664,0.0,0.3469870314579494,0.0348735088019777,-0.013333333333333345,0.0,0.4270831300812525,0.0429234695990927,0.0,0.4702127178203498,0.047258156262526,-0.09333333333333334,0.0,0.384187454245971,0.0386122919665369,-0.14666666666666664,0.0,0.3469870314579494,0.0348735088019777,0.6266666666666666,1.0,0.4489988864128729,0.0451260859854212,0.16,0.0,0.4828043081829324,0.0485236587093909,-0.04,0.0,0.4142463035441596,0.0416333199893226,-0.12,0.0,0.3666060555964672,0.036845294917747,0.16,0.0,0.4828043081829324,0.0485236587093909,-0.12,0.0,0.3666060555964672,0.036845294917747,0.0888888888888888
90,90,barense,novel_high_screen25,0.3571428571428571,0.0848697893980006,0.5020964452534338,6285.142857142857,574.8037226461108,3400.5846827970554,26,abstract_hisim,"['novel_high_screen25_image0_typical.png', 'novel_high_screen25_image1_typical.png', 'novel_high_screen25_image2_oddity.png', 'novel_high_screen25_image3_typical.png']",2,,-0.3333333333333333,-0.32,0.0,0.0994987437106619,0.0099999999999999,-0.32,0.0,0.0994987437106619,0.0099999999999999,0.0,0.0,0.0,-0.3333333333333333,0.0,0.0,0.0,-0.32,0.0,0.0994987437106619,0.0099999999999999,-0.29333333333333333,0.0,0.1705872210923198,0.0171446607997765,-0.32,0.0,0.0994987437106619,0.01,-0.22666666666666666,0.0,0.2712931993250107,0.027265992434429,-0.3333333333333333,0.0,0.0,0.0,-0.3333333333333333,0.0,0.0,0.0,-0.3333333333333333,0.0,0.0,0.0,-0.017777777777777854
91,91,barense,novel_high_screen26,0.4827586206896551,0.0898255296985737,0.4837252813149745,5895.793103448276,552.0201533483491,2972.7195026405216,25,abstract_hisim,"['novel_high_screen26_image0_typical.png', 'novel_high_screen26_image1_oddity.png', 'novel_high_screen26_image2_typical.png', 'novel_high_screen26_image3_typical.png']",1,,-0.14666666666666664,-0.06666666666666665,0.0,0.4,0.0402015126103684,-0.12,0.0,0.3666060555964672,0.036845294917747,0.0,0.3469870314579494,0.0348735088019777,0.02666666666666669,0.0,0.4439594576084623,0.0446196043338473,-0.10666666666666665,0.0,0.375632799419859,0.0377525168068636,-0.3333333333333333,0.0,0.0,0.0,-0.24,0.0,0.2551470164434614,0.0256432399976242,-0.3333333333333333,0.0,0.0,0.0,-0.24,0.0,0.2551470164434614,0.0256432399976242,-0.14666666666666664,0.0,0.3469870314579494,0.0348735088019777,0.013333333333333345,0.0,0.4386342439892262,0.0440844002276808,-0.09777777777777785
92,92,barense,novel_high_screen27,0.4827586206896551,0.0898255296985737,0.4837252813149745,7945.827586206897,777.3508379702299,4186.162375433798,20,abstract_hisim,"['novel_high_screen27_image0_typical.png', 'novel_high_screen27_image1_typical.png', 'novel_high_screen27_image2_oddity.png', 'novel_high_screen27_image3_typical.png']",2,,-0.09333333333333334,0.0,0.0,0.4330127018922193,0.0435194139889244,-0.08,0.0,0.3923009049186606,0.0394277244403662,0.0,0.3841874542459709,0.0386122919665369,-0.21333333333333335,0.0,0.2861817604250837,0.0287623491264661,-0.10666666666666665,0.0,0.375632799419859,0.0377525168068636,0.6,1.0,0.4582575694955839,0.0460566186471838,0.2133333333333333,0.0,0.4918333050943175,0.049431107042371,0.4666666666666666,1.0,0.4898979485566356,0.0492365963917331,-0.3066666666666667,0.0,0.1399999999999999,0.0140705294136289,-0.27999999999999997,0.0,0.1959591794226542,0.0196946385566932,-0.21333333333333335,0.0,0.2861817604250837,0.0287623491264661,0.2977777777777777
93,93,barense,novel_high_screen28,0.3333333333333333,0.0839921051131616,0.5039526306789697,7096.666666666667,518.6495896319565,3111.8975377917386,29,abstract_hisim,"['novel_high_screen28_image0_typical.png', 'novel_high_screen28_image1_oddity.png', 'novel_high_screen28_image2_typical.png', 'novel_high_screen28_image3_typical.png']",1,,-0.013333333333333345,0.10666666666666669,0.0,0.4702127178203498,0.047258156262526,-0.013333333333333345,0.0,0.4270831300812525,0.0429234695990927,0.0,0.4270831300812525,0.0429234695990927,-0.13333333333333333,0.0,0.3570714214271425,0.0358870281282636,-0.053333333333333344,0.0,0.407308237088326,0.0409360180740332,-0.25333333333333335,0.0,0.2374868417407583,0.0238683256575942,0.02666666666666669,0.0,0.4439594576084623,0.0446196043338473,-0.17333333333333334,0.0,0.3249615361854384,0.032659863237109,0.28,0.0,0.4983974317750844,0.0500908265962033,-0.29333333333333333,0.0,0.1705872210923198,0.0171446607997765,-0.27999999999999997,0.0,0.1959591794226542,0.0196946385566932,0.06666666666666665
94,94,barense,novel_high_screen29,0.71875,0.0701021719786843,0.396557769456266,6471.875,547.7350647063514,3098.457428380108,25,abstract_hisim,"['novel_high_screen29_image0_typical.png', 'novel_high_screen29_image1_typical.png', 'novel_high_screen29_image2_oddity.png', 'novel_high_screen29_image3_typical.png']",2,,-0.053333333333333344,-0.32,0.0,0.0994987437106619,0.0099999999999999,-0.3066666666666667,0.0,0.1399999999999999,0.0140705294136289,0.0,0.407308237088326,0.0409360180740332,-0.10666666666666665,0.0,0.375632799419859,0.0377525168068636,-0.21333333333333335,0.0,0.2861817604250837,0.0287623491264661,0.6266666666666666,1.0,0.4489988864128729,0.0451260859854212,-0.013333333333333345,0.0,0.4270831300812525,0.0429234695990927,0.28,0.0,0.4983974317750844,0.0500908265962033,-0.32,0.0,0.0994987437106619,0.0099999999999999,-0.32,0.0,0.0994987437106619,0.0099999999999999,-0.29333333333333333,0.0,0.1705872210923198,0.0171446607997765,0.10666666666666669
95,95,barense,novel_high_screen30,0.3400000000000001,0.1013245610238044,0.5066228051190221,8260.04,1054.8872948961578,5274.436474480789,21,abstract_hisim,"['novel_high_screen30_image0_oddity.png', 'novel_high_screen30_image1_typical.png', 'novel_high_screen30_image2_typical.png', 'novel_high_screen30_image3_typical.png']",0,,0.013333333333333345,-0.04,0.0,0.4142463035441596,0.0416333199893226,-0.24,0.0,0.2551470164434614,0.0256432399976242,0.0,0.4386342439892262,0.0440844002276808,0.52,1.0,0.48,0.0482418151324421,0.10666666666666669,0.0,0.4702127178203498,0.047258156262526,-0.16,0.0,0.3363034344160047,0.0337997668989631,-0.06666666666666665,0.0,0.4,0.0402015126103684,-0.24,0.0,0.2551470164434614,0.0256432399976242,0.20000000000000004,0.0,0.4898979485566356,0.0492365963917331,-0.21333333333333335,0.0,0.2861817604250837,0.0287623491264661,-0.24,0.0,0.2551470164434614,0.0256432399976242,-0.11555555555555559
96,96,barense,novel_high_screen31,0.375,0.1027989924573268,0.5036101551853349,7660.083333333333,938.5854661320406,4598.110944031602,21,abstract_hisim,"['novel_high_screen31_image0_typical.png', 'novel_high_screen31_image1_typical.png', 'novel_high_screen31_image2_oddity.png', 'novel_high_screen31_image3_typical.png']",2,,-0.26666666666666666,-0.013333333333333345,0.0,0.4270831300812525,0.0429234695990927,-0.24,0.0,0.2551470164434615,0.0256432399976242,0.0,0.2179449471770336,0.021904291355759,-0.18666666666666668,0.0,0.3128897569432403,0.031446603773522,-0.18666666666666668,0.0,0.3128897569432403,0.031446603773522,0.6,1.0,0.4582575694955839,0.0460566186471838,-0.04,0.0,0.4142463035441596,0.0416333199893226,0.18666666666666668,0.0,0.4877499359302879,0.0490207130000197,-0.27999999999999997,0.0,0.1959591794226542,0.0196946385566932,-0.3066666666666667,0.0,0.1399999999999999,0.0140705294136289,-0.32,0.0,0.0994987437106619,0.0099999999999999,0.0
97,97,barense,novel_high_screen32,-0.0499999999999999,0.0850962943396763,0.4660915996993989,6177.233333333334,687.8697662813686,3767.617876181121,24,abstract_hisim,"['novel_high_screen32_image0_typical.png', 'novel_high_screen32_image1_typical.png', 'novel_high_screen32_image2_typical.png', 'novel_high_screen32_image3_oddity.png']",3,,0.09333333333333334,0.06666666666666665,0.0,0.4582575694955839,0.0460566186471838,0.20000000000000004,0.0,0.4898979485566356,0.0492365963917331,0.0,0.4664761515876239,0.046882617226215,0.24,0.0,0.4950757517794625,0.0497569851956243,-0.013333333333333345,0.0,0.4270831300812525,0.0429234695990927,-0.08,0.0,0.3923009049186606,0.0394277244403662,-0.10666666666666665,0.0,0.375632799419859,0.0377525168068636,0.013333333333333345,0.0,0.4386342439892262,0.0440844002276808,-0.17333333333333334,0.0,0.3249615361854384,0.032659863237109,0.49333333333333335,1.0,0.4853864439804639,0.0487831731214563,0.013333333333333345,0.0,0.4386342439892262,0.0440844002276808,-0.17333333333333334
98,98,barense,novel_high_screen33,0.4375,0.100946606635906,0.4945353550468402,6087.583333333333,488.348440125931,2392.4089899852656,22,abstract_hisim,"['novel_high_screen33_image0_typical.png', 'novel_high_screen33_image1_typical.png', 'novel_high_screen33_image2_typical.png', 'novel_high_screen33_image3_oddity.png']",3,,0.28,0.10666666666666669,0.0,0.4702127178203498,0.047258156262526,0.09333333333333334,0.0,0.4664761515876239,0.046882617226215,0.0,0.4983974317750844,0.0500908265962033,0.48,1.0,0.4877499359302879,0.0490207130000197,0.25333333333333335,0.0,0.4963869458396343,0.0498887651569858,0.0,0.0,0.4330127018922193,0.0435194139889244,0.2133333333333333,0.0,0.4918333050943174,0.049431107042371,0.0,0.0,0.4330127018922193,0.0435194139889244,0.7200000000000001,1.0,0.407308237088326,0.0409360180740332,0.49333333333333335,1.0,0.4853864439804639,0.0487831731214563,0.22666666666666666,0.0,0.4935585071701227,0.0496044963748858,0.2355555555555556
99,99,barense,novel_high_screen34,0.2241379310344828,0.0944349237077872,0.5085476277156078,7286.6551724137935,633.6779210103623,3412.460039283161,23,abstract_hisim,"['novel_high_screen34_image0_oddity.png', 'novel_high_screen34_image1_typical.png', 'novel_high_screen34_image2_typical.png', 'novel_high_screen34_image3_typical.png']",0,,-0.10666666666666665,0.32,0.0,0.4998999899979995,0.0502418393795691,0.08,0.0,0.462493243193887,0.0464823198711731,0.0,0.375632799419859,0.0377525168068636,-0.13333333333333333,0.0,0.3570714214271425,0.0358870281282636,0.48,1.0,0.4877499359302879,0.0490207130000197,0.08,0.0,0.462493243193887,0.0464823198711731,-0.21333333333333335,0.0,0.2861817604250837,0.0287623491264661,-0.10666666666666665,0.0,0.375632799419859,0.0377525168068636,0.4133333333333334,1.0,0.4963869458396343,0.0498887651569858,0.43999999999999995,1.0,0.4935585071701227,0.0496044963748858,0.43999999999999995,1.0,0.4935585071701227,0.0496044963748858,0.062222222222222255
100,100,barense,novel_high_screen36,0.58,0.0916515138991168,0.458257569495584,6100.16,566.4444535286168,2832.2222676430843,18,abstract_hisim,"['novel_high_screen36_image0_typical.png', 'novel_high_screen36_image1_typical.png', 'novel_high_screen36_image2_typical.png', 'novel_high_screen36_image3_oddity.png']",3,,-0.14666666666666664,0.0,0.0,0.4330127018922193,0.0435194139889244,-0.09333333333333334,0.0,0.3841874542459709,0.0386122919665369,0.0,0.3469870314579494,0.0348735088019777,-0.21333333333333335,0.0,0.2861817604250837,0.0287623491264661,-0.08,0.0,0.3923009049186606,0.0394277244403662,0.3333333333333333,0.5,0.5,0.0502518907629606,-0.08,0.0,0.3923009049186606,0.0394277244403662,0.20000000000000004,0.0,0.4898979485566356,0.0492365963917331,-0.29333333333333333,0.0,0.1705872210923198,0.0171446607997765,-0.21333333333333335,0.0,0.2861817604250837,0.0287623491264661,-0.18666666666666668,0.0,0.3128897569432403,0.031446603773522,0.23111111111111104
101,101,barense,novel_high_screen37,0.671875,0.0742485880174205,0.4200134406451544,7614.28125,515.7127491011188,2917.311856270061,26,abstract_hisim,"['novel_high_screen37_image0_typical.png', 'novel_high_screen37_image1_typical.png', 'novel_high_screen37_image2_oddity.png', 'novel_high_screen37_image3_typical.png']",2,,-0.3333333333333333,-0.29333333333333333,0.0,0.1705872210923198,0.0171446607997765,-0.3333333333333333,0.0,0.0,0.0,0.0,0.0,0.0,-0.3333333333333333,0.0,0.0,0.0,-0.3333333333333333,0.0,0.0,0.0,-0.3333333333333333,0.0,0.0,0.0,-0.3333333333333333,0.0,0.0,0.0,-0.3333333333333333,0.0,0.0,0.0,-0.32,0.0,0.0994987437106619,0.0099999999999999,-0.3333333333333333,0.0,0.0,0.0,-0.3333333333333333,0.0,0.0,0.0,0.17777777777777773
102,102,barense,novel_high_screen38,0.5227272727272726,0.1016394535227177,0.4767312946227962,8850.90909090909,868.1222207054975,4071.854145449979,19,abstract_hisim,"['novel_high_screen38_image0_typical.png', 'novel_high_screen38_image1_typical.png', 'novel_high_screen38_image2_typical.png', 'novel_high_screen38_image3_oddity.png']",3,,-0.10666666666666665,-0.06666666666666665,0.0,0.4,0.0402015126103684,-0.13333333333333333,0.0,0.3570714214271425,0.0358870281282636,0.0,0.375632799419859,0.0377525168068636,-0.21333333333333335,0.0,0.2861817604250837,0.0287623491264661,-0.09333333333333334,0.0,0.3841874542459709,0.0386122919665369,0.10666666666666669,0.0,0.4702127178203499,0.047258156262526,0.0,0.0,0.4330127018922193,0.0435194139889244,0.24,0.0,0.4950757517794625,0.0497569851956243,-0.32,0.0,0.0994987437106619,0.0099999999999999,-0.18666666666666668,0.0,0.3128897569432403,0.031446603773522,-0.18666666666666668,0.0,0.3128897569432403,0.031446603773522,0.022222222222222143
103,103,barense,novel_high_screen39,-0.0909090909090909,0.0971859061499725,0.4558423058385518,8219.727272727272,633.5228658590884,2971.4856342339726,22,abstract_hisim,"['novel_high_screen39_image0_typical.png', 'novel_high_screen39_image1_oddity.png', 'novel_high_screen39_image2_typical.png', 'novel_high_screen39_image3_typical.png']",1,,0.013333333333333345,-0.3066666666666667,0.0,0.1399999999999999,0.0140705294136289,0.18666666666666668,0.0,0.4877499359302879,0.0490207130000197,0.0,0.4386342439892262,0.0440844002276808,-0.18666666666666668,0.0,0.3128897569432403,0.031446603773522,-0.26666666666666666,0.0,0.2179449471770336,0.021904291355759,-0.3333333333333333,0.0,0.0,0.0,-0.3066666666666667,0.0,0.1399999999999999,0.0140705294136289,-0.3333333333333333,0.0,0.0,0.0,-0.3333333333333333,0.0,0.0,0.0,-0.21333333333333335,0.0,0.2861817604250837,0.0287623491264661,0.16,0.0,0.4828043081829324,0.0485236587093909,-0.12
104,104,barense,novel_high_screen40,0.390625,0.0882099653319905,0.4989909172358461,5663.375,519.9854405336129,2941.481848956736,26,abstract_hisim,"['novel_high_screen40_image0_typical.png', 'novel_high_screen40_image1_oddity.png', 'novel_high_screen40_image2_typical.png', 'novel_high_screen40_image3_typical.png']",1,,-0.19999999999999998,-0.3066666666666667,0.0,0.1399999999999999,0.0140705294136289,-0.24,0.0,0.2551470164434614,0.0256432399976242,0.0,0.3,0.0301511344577763,-0.17333333333333334,0.0,0.3249615361854384,0.032659863237109,-0.04,0.0,0.4142463035441596,0.0416333199893226,-0.053333333333333344,0.0,0.407308237088326,0.0409360180740332,-0.25333333333333335,0.0,0.2374868417407583,0.0238683256575942,-0.12,0.0,0.3666060555964672,0.036845294917747,-0.19999999999999998,0.0,0.3,0.0301511344577763,0.05333333333333331,0.0,0.4537620521815371,0.0456048021572068,-0.3333333333333333,0.0,0.0,0.0,0.06666666666666665
105,105,barense,novel_low_screen02,0.8269230769230769,0.0638971066378313,0.3258125936084211,3559.3076923076924,328.4665151847797,1674.8571704890126,23,abstract_lowsim,"['novel_low_screen02_image0_typical.png', 'novel_low_screen02_image1_typical.png', 'novel_low_screen02_image2_oddity.png', 'novel_low_screen02_image3_typical.png']",2,,1.0,1.0,1.0,0.0,0.0,1.0,1.0,0.0,0.0,1.0,0.0,0.0,0.02666666666666669,0.0,0.4439594576084623,0.0446196043338473,0.28,0.0,0.4983974317750844,0.0500908265962033,1.0,1.0,0.0,0.0,0.30666666666666664,0.0,0.4995998398718718,0.0502116731568678,0.9199999999999999,1.0,0.2374868417407583,0.0238683256575942,-0.053333333333333344,0.0,0.407308237088326,0.0409360180740332,-0.013333333333333345,0.0,0.4270831300812525,0.0429234695990927,-0.3066666666666667,0.0,0.1399999999999999,0.0140705294136289,0.2488888888888888
106,106,barense,novel_low_screen04,0.931818181818182,0.0454545454545454,0.2132007163556104,4264.590909090909,483.3959311266808,2267.327893591105,19,abstract_lowsim,"['novel_low_screen04_image0_typical.png', 'novel_low_screen04_image1_typical.png', 'novel_low_screen04_image2_typical.png', 'novel_low_screen04_image3_oddity.png']",3,,1.0,1.0,1.0,0.0,0.0,1.0,1.0,0.0,0.0,1.0,0.0,0.0,1.0,1.0,0.0,0.0,1.0,1.0,0.0,0.0,1.0,1.0,0.0,0.0,1.0,1.0,0.0,0.0,1.0,1.0,0.0,0.0,0.10666666666666669,0.0,0.4702127178203498,0.047258156262526,0.7733333333333333,1.0,0.375632799419859,0.0377525168068636,0.7333333333333334,1.0,0.4,0.0402015126103684,0.8977777777777777
107,107,barense,novel_low_screen05,0.9423076923076922,0.0384615384615384,0.196116135138184,3739.576923076923,278.657060659911,1420.8777899052943,23,abstract_lowsim,"['novel_low_screen05_image0_oddity.png', 'novel_low_screen05_image1_typical.png', 'novel_low_screen05_image2_typical.png', 'novel_low_screen05_image3_typical.png']",0,,1.0,1.0,1.0,0.0,0.0,1.0,1.0,0.0,0.0,1.0,0.0,0.0,1.0,1.0,0.0,0.0,1.0,1.0,0.0,0.0,1.0,1.0,0.0,0.0,1.0,1.0,0.0,0.0,1.0,1.0,0.0,0.0,0.17333333333333334,0.0,0.4853864439804639,0.0487831731214563,0.43999999999999995,1.0,0.4935585071701227,0.0496044963748858,0.3866666666666667,1.0,0.4983974317750844,0.0500908265962033,0.9822222222222224
108,108,barense,novel_low_screen06,0.8285714285714285,0.054563640607556,0.3228028510906756,4216.4,305.8256882549905,1809.289171437875,26,abstract_lowsim,"['novel_low_screen06_image0_typical.png', 'novel_low_screen06_image1_oddity.png', 'novel_low_screen06_image2_typical.png', 'novel_low_screen06_image3_typical.png']",1,,1.0,1.0,1.0,0.0,0.0,1.0,1.0,0.0,0.0,1.0,0.0,0.0,1.0,1.0,0.0,0.0,1.0,1.0,0.0,0.0,1.0,1.0,0.0,0.0,0.8666666666666667,1.0,0.3,0.0301511344577763,1.0,1.0,0.0,0.0,0.2933333333333333,0.0,0.4990991885387111,0.0501613558046591,-0.013333333333333345,0.0,0.4270831300812525,0.0429234695990927,-0.16,0.0,0.3363034344160047,0.0337997668989631,0.6311111111111112
109,109,barense,novel_low_screen07,1.0,0.0,0.0,3156.25,252.89089719925343,1338.172845642451,24,abstract_lowsim,"['novel_low_screen07_image0_typical.png', 'novel_low_screen07_image1_typical.png', 'novel_low_screen07_image2_oddity.png', 'novel_low_screen07_image3_typical.png']",2,,1.0,1.0,1.0,0.0,0.0,1.0,1.0,0.0,0.0,1.0,0.0,0.0,0.8933333333333334,1.0,0.2712931993250107,0.027265992434429,0.9733333333333333,1.0,0.1399999999999999,0.0140705294136289,1.0,1.0,0.0,0.0,1.0,1.0,0.0,0.0,0.05333333333333331,0.0,0.4537620521815371,0.0456048021572068,-0.22666666666666666,0.0,0.2712931993250107,0.027265992434429,-0.17333333333333334,0.0,0.3249615361854384,0.032659863237109,-0.25333333333333335,0.0,0.2374868417407583,0.0238683256575942,0.911111111111111
110,110,barense,novel_low_screen08,0.8333333333333333,0.053121271525973,0.3187276291558383,4178.194444444444,334.88614701034686,2009.316882062081,29,abstract_lowsim,"['novel_low_screen08_image0_typical.png', 'novel_low_screen08_image1_typical.png', 'novel_low_screen08_image2_typical.png', 'novel_low_screen08_image3_oddity.png']",3,,1.0,1.0,1.0,0.0,0.0,1.0,1.0,0.0,0.0,1.0,0.0,0.0,1.0,1.0,0.0,0.0,1.0,1.0,0.0,0.0,1.0,1.0,0.0,0.0,1.0,1.0,0.0,0.0,1.0,1.0,0.0,0.0,-0.10666666666666665,0.0,0.375632799419859,0.0377525168068636,-0.19999999999999998,0.0,0.3,0.0301511344577763,0.30666666666666664,0.0,0.4995998398718718,0.0502116731568678,0.7155555555555555
111,111,barense,novel_low_screen09,0.8953488372093021,0.039309500219931,0.2577696311132336,3031.7906976744184,179.57895433368213,1177.5779533015568,34,abstract_lowsim,"['novel_low_screen09_image0_oddity.png', 'novel_low_screen09_image1_typical.png', 'novel_low_screen09_image2_typical.png', 'novel_low_screen09_image3_typical.png']",0,,1.0,1.0,1.0,0.0,0.0,1.0,1.0,0.0,0.0,1.0,0.0,0.0,1.0,1.0,0.0,0.0,1.0,1.0,0.0,0.0,1.0,1.0,0.0,0.0,1.0,1.0,0.0,0.0,1.0,1.0,0.0,0.0,0.06666666666666665,0.0,0.4582575694955839,0.0460566186471838,0.52,1.0,0.48,0.0482418151324421,0.52,1.0,0.48,0.0482418151324421,0.20000000000000004
112,112,barense,novel_low_screen10,0.7857142857142855,0.0673435029701473,0.3563483225498992,3268.785714285714,269.9057123097155,1428.2067844145042,22,abstract_lowsim,"['novel_low_screen10_image0_typical.png', 'novel_low_screen10_image1_oddity.png', 'novel_low_screen10_image2_typical.png', 'novel_low_screen10_image3_typical.png']",1,,1.0,1.0,1.0,0.0,0.0,0.9866666666666667,1.0,0.0994987437106619,0.0099999999999999,1.0,0.0,0.0,1.0,1.0,0.0,0.0,1.0,1.0,0.0,0.0,1.0,1.0,0.0,0.0,1.0,1.0,0.0,0.0,1.0,1.0,0.0,0.0,-0.06666666666666665,0.0,0.4,0.0402015126103684,-0.3333333333333333,0.0,0.0,0.0,-0.27999999999999997,0.0,0.1959591794226542,0.0196946385566932,0.8755555555555555
113,113,barense,novel_low_screen11,0.8125,0.0593988704139364,0.3360107525161235,3374.9375,364.1328739265269,2059.846595251147,21,abstract_lowsim,"['novel_low_screen11_image0_typical.png', 'novel_low_screen11_image1_typical.png', 'novel_low_screen11_image2_oddity.png', 'novel_low_screen11_image3_typical.png']",2,,0.88,1.0,1.0,0.0,0.0,0.9466666666666667,1.0,0.1959591794226542,0.0196946385566932,1.0,0.2861817604250837,0.0287623491264661,0.5733333333333334,1.0,0.466476151587624,0.046882617226215,-0.32,0.0,0.0994987437106619,0.0099999999999999,0.5866666666666666,1.0,0.462493243193887,0.0464823198711731,-0.25333333333333335,0.0,0.2374868417407583,0.0238683256575942,0.8266666666666667,1.0,0.3363034344160047,0.0337997668989631,0.013333333333333345,0.0,0.4386342439892262,0.0440844002276808,-0.27999999999999997,0.0,0.1959591794226542,0.0196946385566932,0.06666666666666665,0.0,0.4582575694955839,0.0460566186471838,0.5244444444444444
114,114,barense,novel_low_screen12,0.9375,0.0416666666666666,0.2041241452319314,3727.75,360.06556493328367,1763.9538160670172,20,abstract_lowsim,"['novel_low_screen12_image0_typical.png', 'novel_low_screen12_image1_typical.png', 'novel_low_screen12_image2_typical.png', 'novel_low_screen12_image3_oddity.png']",3,,1.0,1.0,1.0,0.0,0.0,1.0,1.0,0.0,0.0,1.0,0.0,0.0,0.9866666666666667,1.0,0.0994987437106619,0.0099999999999999,1.0,1.0,0.0,0.0,1.0,1.0,0.0,0.0,1.0,1.0,0.0,0.0,1.0,1.0,0.0,0.0,0.4000000000000001,1.0,0.49749371855331,0.05,0.5733333333333334,1.0,0.4664761515876239,0.046882617226215,0.2933333333333333,0.0,0.4990991885387111,0.0501613558046591,0.5155555555555557
115,115,barense,novel_low_screen13,0.8749999999999998,0.0576303395673437,0.2823298512866399,4322.458333333333,478.1664708420702,2342.527731340965,21,abstract_lowsim,"['novel_low_screen13_image0_oddity.png', 'novel_low_screen13_image1_typical.png', 'novel_low_screen13_image2_typical.png', 'novel_low_screen13_image3_typical.png']",0,,1.0,1.0,1.0,0.0,0.0,1.0,1.0,0.0,0.0,1.0,0.0,0.0,1.0,1.0,0.0,0.0,1.0,1.0,0.0,0.0,0.9866666666666667,1.0,0.0994987437106619,0.0099999999999999,1.0,1.0,0.0,0.0,1.0,1.0,0.0,0.0,-0.06666666666666665,0.0,0.4,0.0402015126103684,0.7599999999999999,1.0,0.3841874542459709,0.0386122919665369,-0.18666666666666668,0.0,0.3128897569432403,0.031446603773522,0.7333333333333334
116,116,barense,novel_low_screen14,0.9464285714285712,0.0357142857142857,0.1889822365046136,3303.1428571428573,196.48404700031907,1039.6958499087416,22,abstract_lowsim,"['novel_low_screen14_image0_typical.png', 'novel_low_screen14_image1_typical.png', 'novel_low_screen14_image2_oddity.png', 'novel_low_screen14_image3_typical.png']",2,,1.0,1.0,1.0,0.0,0.0,1.0,1.0,0.0,0.0,1.0,0.0,0.0,1.0,1.0,0.0,0.0,1.0,1.0,0.0,0.0,0.9733333333333333,1.0,0.1399999999999999,0.0140705294136289,1.0,1.0,0.0,0.0,1.0,1.0,0.0,0.0,-0.17333333333333334,0.0,0.3249615361854384,0.032659863237109,-0.29333333333333333,0.0,0.1705872210923198,0.0171446607997765,-0.32,0.0,0.0994987437106619,0.0099999999999999,0.5511111111111111
117,117,barense,novel_low_screen15,0.9583333333333331,0.0277777777777777,0.1666666666666666,3244.1666666666665,261.50698039182583,1569.0418823509551,27,abstract_lowsim,"['novel_low_screen15_image0_typical.png', 'novel_low_screen15_image1_oddity.png', 'novel_low_screen15_image2_typical.png', 'novel_low_screen15_image3_typical.png']",1,,1.0,1.0,1.0,0.0,0.0,1.0,1.0,0.0,0.0,1.0,0.0,0.0,-0.013333333333333345,0.0,0.4270831300812525,0.0429234695990927,0.7599999999999999,1.0,0.3841874542459709,0.0386122919665369,1.0,1.0,0.0,0.0,1.0,1.0,0.0,0.0,1.0,1.0,0.0,0.0,-0.25333333333333335,0.0,0.2374868417407583,0.0238683256575942,0.02666666666666669,0.0,0.4439594576084623,0.0446196043338473,0.14666666666666664,0.0,0.48,0.0482418151324421,0.8888888888888888
118,118,barense,novel_low_screen16,1.0,0.0,0.0,3449.304347826087,277.57637865510645,1331.2095468811474,19,abstract_lowsim,"['novel_low_screen16_image0_typical.png', 'novel_low_screen16_image1_typical.png', 'novel_low_screen16_image2_typical.png', 'novel_low_screen16_image3_oddity.png']",3,,1.0,1.0,1.0,0.0,0.0,1.0,1.0,0.0,0.0,1.0,0.0,0.0,0.9866666666666667,1.0,0.0994987437106619,0.0099999999999999,0.68,1.0,0.4270831300812525,0.0429234695990927,0.9333333333333332,1.0,0.2179449471770337,0.021904291355759,1.0,1.0,0.0,0.0,1.0,1.0,0.0,0.0,0.040000000000000036,0.0,0.4489988864128728,0.0451260859854212,-0.27999999999999997,0.0,0.1959591794226542,0.0196946385566932,-0.10666666666666665,0.0,0.375632799419859,0.0377525168068636,0.8666666666666667
119,119,barense,novel_low_screen17,0.7794117647058821,0.0616521340660294,0.3594906279535709,4038.970588235294,305.34651857966867,1780.4608610965347,28,abstract_lowsim,"['novel_low_screen17_image0_oddity.png', 'novel_low_screen17_image1_typical.png', 'novel_low_screen17_image2_typical.png', 'novel_low_screen17_image3_typical.png']",0,,0.43999999999999995,0.9066666666666667,1.0,0.2551470164434614,0.0256432399976242,0.5866666666666666,1.0,0.462493243193887,0.0464823198711731,1.0,0.4935585071701227,0.0496044963748858,0.6266666666666666,1.0,0.4489988864128728,0.0451260859854212,0.24,0.0,0.4950757517794625,0.0497569851956243,0.9466666666666667,1.0,0.1959591794226542,0.0196946385566932,1.0,1.0,0.0,0.0,-0.3333333333333333,0.0,0.0,0.0,-0.06666666666666665,0.0,0.4,0.0402015126103684,-0.3066666666666667,0.0,0.1399999999999999,0.0140705294136289,-0.25333333333333335,0.0,0.2374868417407583,0.0238683256575942,0.4133333333333334
